id,timestamp,acc_x,acc_y,acc_z,gyro_x,gyro_y,gyro_z
0,1715374776.249335,0.26,-0.08,1.03,17.46,3.78,-2.87
8,1715374776.259873,0.23,-0.1,1.04,2.81,-0.06,3.05
37,1715374776.298226,0.19,-0.11,1.02,-8.79,3.6,9.46
67,1715374776.337105,0.16,-0.14,1.06,-1.53,-8.42,25.02
94,1715374776.374405,0.14,-0.02,0.92,-3.78,-0.92,47.18
125,1715374776.414578,0.09,0.05,0.75,-3.78,-0.92,47.18
126,1715374776.415917,0.09,0.05,0.75,-40.22,18.62,74.1
154,1715374776.452648,-0.11,-0.12,0.46,-40.22,18.62,74.1
156,1715374776.455227,-0.11,-0.12,0.46,-80.2,18.43,72.57
183,1715374776.490052,-0.07,0.12,0.26,-73.18,-25.82,52.06
214,1715374776.530507,-0.12,0.13,-0.04,-135.5,-5.19,65.37
243,1715374776.568251,-0.11,-0.02,-0.22,-212.46,-2.56,29.24
272,1715374776.606437,0.34,-0.33,-0.36,-212.46,-2.56,29.24
273,1715374776.607757,0.34,-0.33,-0.36,-292.18,-15.69,40.83
302,1715374776.645678,0.76,-0.89,-0.74,-292.18,-15.69,40.83
303,1715374776.646978,0.76,-0.89,-0.74,-348.57,84.47,58.17
331,1715374776.683572,1.29,-2.25,-1.25,-348.57,84.47,58.17
333,1715374776.68613,1.29,-2.25,-1.25,-430.11,29.17,-29.6
362,1715374776.72348,1.87,-3.99,-1.24,-412.66,200.13,-32.23
393,1715374776.763481,1.94,-5.11,-0.47,-228.15,408.87,57.98
423,1715374776.802356,1.82,-4.53,0.17,73.97,363.28,-104.19
452,1715374776.840216,0.95,-4.03,-0.06,94.67,172.12,-312.87
481,1715374776.877975,0.24,-3.48,0.45,94.67,172.12,-312.87
483,1715374776.880629,0.24,-3.48,0.45,128.3,191.41,-308.41
511,1715374776.917121,-0.2,-2.96,0.38,199.58,98.69,-318.73
541,1715374776.955959,-0.51,-2.53,0.18,199.58,98.69,-318.73
544,1715374776.959829,-0.51,-2.53,0.18,245.73,-18.07,-381.1
572,1715374776.996563,-0.5,-2.39,0.01,206.85,-96.31,-426.21
604,1715374777.037919,-0.47,-2.31,-0.07,182.31,-104.49,-455.69
654,1715374777.102543,-0.39,-2.13,-0.15,182.31,-104.49,-455.69
655,1715374777.103855,-0.39,-2.13,-0.15,136.66,-72.14,-448.91
659,1715374777.108763,-0.28,-1.95,-0.12,136.66,-72.14,-448.91
661,1715374777.111365,-0.28,-1.95,-0.12,65.67,-67.32,-459.35
688,1715374777.147823,0.01,-1.91,-0.17,-26.92,-100.22,-483.58
718,1715374777.187048,-0.14,-1.78,-0.43,-109.68,-104.37,-494.08
748,1715374777.22497,-1.52,-1.03,-0.04,-234.74,-162.23,-475.77
778,1715374777.263856,-4.89,-0.34,2.16,-234.74,-162.23,-475.77
780,1715374777.266477,-4.89,-0.34,2.16,-242.98,-113.95,-250.49
809,1715374777.304143,-5.56,-0.56,2.9,3.36,-65.61,-31.13
837,1715374777.340172,-4.85,-0.84,1.94,237.3,-203.92,125.18
867,1715374777.378925,-2.61,-1.91,-0.4,237.3,-203.92,125.18
870,1715374777.382803,-2.61,-1.91,-0.4,443.6,-177.31,355.22
897,1715374777.417874,-0.24,-3.18,-2.57,395.57,-139.4,609.62
927,1715374777.457268,0.68,-3.7,-2.13,395.57,-139.4,609.62
928,1715374777.458565,0.68,-3.7,-2.13,224.06,-162.35,549.26
956,1715374777.494904,1.03,-4.12,-1.27,227.84,-50.29,590.27
986,1715374777.533514,0.87,-3.59,-0.44,215.15,113.71,585.27
1017,1715374777.574925,0.02,-2.86,-0.1,148.56,69.34,471.8
1045,1715374777.611372,-0.29,-2.71,0.05,51.57,-47.0,413.15
1077,1715374777.652678,0.25,-2.46,-0.04,46.26,13.31,439.03
1106,1715374777.690073,2.07,-2.87,-0.38,-17.52,-27.34,361.27
1136,1715374777.728818,3.38,-3.19,-0.93,-17.52,-27.34,361.27
1138,1715374777.73152,3.38,-3.19,-0.93,-61.16,96.86,353.39
1166,1715374777.768223,7.02,-4.33,-1.66,-6.41,-20.2,226.07
1195,1715374777.805806,3.77,-5.16,-0.92,-6.41,-20.2,226.07
1197,1715374777.808398,3.77,-5.16,-0.92,-32.04,135.44,-225.89
1231,1715374777.852314,1.39,-4.73,-0.57,23.07,164.06,-259.77
1256,1715374777.884361,1.12,-3.96,-0.27,118.16,135.01,-354.55
1285,1715374777.921953,0.36,-2.95,-0.18,187.13,124.15,-380.19
1316,1715374777.962148,-0.08,-2.76,-0.41,253.3,60.85,-428.04
1346,1715374778.001192,-0.46,-2.74,-0.63,193.85,-20.81,-506.29
1375,1715374778.038854,-0.18,-2.57,-0.38,100.46,-95.83,-509.77
1405,1715374778.078044,0.13,-2.52,-0.37,100.46,-95.83,-509.77
1407,1715374778.080602,0.13,-2.52,-0.37,58.9,-101.2,-540.65
1433,1715374778.114718,0.19,-2.37,-0.47,58.9,-101.2,-540.65
1435,1715374778.117276,0.19,-2.37,-0.47,11.66,17.88,-436.4
1462,1715374778.153706,0.08,-2.2,-0.41,11.66,17.88,-436.4
1463,1715374778.154999,0.08,-2.2,-0.41,3.91,109.37,-358.76
1495,1715374778.19599,-0.36,-1.74,-0.6,-5.8,82.21,-350.1
1522,1715374778.23085,-1.21,-0.85,-0.64,-77.76,4.15,-337.65
1554,1715374778.272006,-4.78,0.81,-0.55,-77.76,4.15,-337.65
1555,1715374778.273295,-4.78,0.81,-0.55,-174.26,-133.12,-427.06
1581,1715374778.30688,-5.16,0.57,1.94,-174.26,-133.12,-427.06
1582,1715374778.308184,-5.16,0.57,1.94,-98.82,6.1,-54.44
1613,1715374778.348784,-5.38,0.51,1.6,100.1,-91.0,142.33
1640,1715374778.384053,-3.19,-1.19,0.25,189.45,-247.56,299.32
1669,1715374778.421438,-1.09,-3.02,-1.13,271.3,-207.21,467.9
1699,1715374778.461346,0.66,-3.98,-1.44,214.97,-212.59,514.83
1728,1715374778.499363,1.08,-4.02,-1.45,214.97,-212.59,514.83
1729,1715374778.500664,1.08,-4.02,-1.45,257.08,-68.24,536.62
1758,1715374778.538018,1.04,-3.74,-0.92,164.73,12.76,533.26
1787,1715374778.575743,0.85,-3.35,-0.06,164.73,12.76,533.26
1788,1715374778.577068,0.85,-3.35,-0.06,117.8,94.24,497.86
1817,1715374778.614591,0.26,-3.01,0.06,117.8,94.24,497.86
1818,1715374778.61589,0.26,-3.01,0.06,78.12,172.18,520.45
1846,1715374778.652223,-0.14,-2.68,0.32,78.12,172.18,520.45
1847,1715374778.653509,-0.14,-2.68,0.32,6.96,152.1,506.04
1876,1715374778.691196,0.42,-3.02,-0.56,6.96,152.1,506.04
1879,1715374778.694961,0.42,-3.02,-0.56,-83.98,-224.37,397.83
1905,1715374778.728913,3.95,-3.41,-0.94,-83.98,-224.37,397.83
1907,1715374778.731518,3.95,-3.41,-0.94,-29.24,-86.18,332.89
1936,1715374778.769374,5.76,-4.06,-2.28,32.23,38.02,293.27
1966,1715374778.808686,5.2,-4.56,-2.08,32.23,38.02,293.27
1969,1715374778.812603,5.2,-4.56,-2.08,-112.43,-15.38,-334.59
1995,1715374778.846325,1.55,-5.08,-0.57,-11.11,295.04,-220.58
2024,1715374778.884398,1.37,-4.47,-0.44,93.75,193.91,-294.19
2053,1715374778.922275,0.83,-3.39,-0.34,93.75,193.91,-294.19
2054,1715374778.923764,0.83,-3.39,-0.34,162.6,153.14,-374.02
2081,1715374778.958686,0.19,-2.72,-0.25,195.13,71.66,-430.11
2111,1715374778.997702,-0.2,-2.61,-0.42,174.68,-18.62,-524.54
2140,1715374779.03576,-0.15,-2.7,-0.32,174.68,-18.62,-524.54
2141,1715374779.037065,-0.15,-2.7,-0.32,121.95,-5.37,-516.05
2170,1715374779.07567,-0.05,-2.32,-0.43,121.95,-5.37,-516.05
2172,1715374779.078709,-0.05,-2.32,-0.43,72.57,-4.7,-475.4
2199,1715374779.114012,0.35,-2.32,-0.35,-28.99,-57.25,-496.64
2233,1715374779.157955,0.42,-2.41,-0.46,-24.78,41.69,-415.47
2259,1715374779.191188,0.09,-2.1,-0.69,-23.99,115.72,-344.79
2289,1715374779.230143,-1.06,-1.32,-0.63,-23.99,115.72,-344.79
2290,1715374779.23147,-1.06,-1.32,-0.63,-60.12,16.11,-357.73
2316,1715374779.26568,-3.07,0.52,0.52,-60.12,16.11,-357.73
2320,1715374779.270856,-3.07,0.52,0.52,-108.22,-14.59,-230.16
2347,1715374779.30578,-5.35,1.16,1.23,-23.74,-155.15,-130.55
2376,1715374779.343438,-5.35,1.33,0.92,60.55,-149.6,94.85
2407,1715374779.38354,-3.91,0.13,0.37,60.55,-149.6,94.85
2408,1715374779.384827,-3.91,0.13,0.37,94.97,-234.19,264.22
2437,1715374779.422835,-1.77,-2.31,-0.63,178.83,-385.93,364.62
2466,1715374779.460493,-0.29,-3.76,-1.78,178.83,-385.93,364.62
2472,1715374779.468205,-0.29,-3.76,-1.78,282.35,-353.82,376.04
2498,1715374779.501348,0.59,-3.83,-2.0,300.11,-246.89,445.98
2533,1715374779.547007,0.81,-3.64,-1.36,254.7,-174.26,404.36
2556,1715374779.576884,1.0,-3.27,-0.76,243.16,-36.32,399.35
2589,1715374779.621048,0.67,-2.93,-0.15,206.42,168.46,447.33
2615,1715374779.654995,0.33,-2.66,0.02,163.15,207.82,495.97
2644,1715374779.69273,0.54,-2.27,-0.39,43.21,194.89,531.8
2674,1715374779.731065,2.21,-2.9,-0.22,43.21,194.89,531.8
2676,1715374779.733667,2.21,-2.9,-0.22,-4.21,2.26,360.6
2705,1715374779.770897,3.2,-3.46,-0.17,65.37,508.42,563.96
2734,1715374779.80833,2.84,-6.05,0.27,-117.98,157.47,464.05
2764,1715374779.847509,2.13,-6.01,0.41,215.03,94.54,-332.09
2796,1715374779.888702,-0.27,-5.11,0.77,133.12,65.73,-358.22
2823,1715374779.923374,-0.05,-4.11,0.25,340.94,142.88,-99.61
2853,1715374779.962264,-0.5,-2.94,0.09,340.94,142.88,-99.61
2854,1715374779.963584,-0.5,-2.94,0.09,352.6,-30.94,-287.23
2882,1715374780.000025,-0.74,-2.68,-0.14,352.6,-30.94,-287.23
2884,1715374780.002721,-0.74,-2.68,-0.14,374.21,-86.55,-334.17
2913,1715374780.040309,-0.98,-2.54,-0.69,374.21,-86.55,-334.17
2914,1715374780.041626,-0.98,-2.54,-0.69,411.87,-17.03,-297.85
2942,1715374780.077905,-0.97,-2.14,-0.55,344.3,-31.07,-249.33
2972,1715374780.117041,-0.83,-2.2,-0.37,309.45,-118.47,-309.2
3001,1715374780.155075,-0.61,-2.43,-0.27,309.45,-118.47,-309.2
3003,1715374780.157693,-0.61,-2.43,-0.27,254.76,-157.65,-364.62
3030,1715374780.193132,-0.32,-2.47,-0.35,230.53,-144.53,-384.58
3060,1715374780.233632,-0.59,-2.13,-0.67,218.87,-72.02,-367.55
3088,1715374780.270498,-1.13,-0.88,-1.1,218.87,-72.02,-367.55
3090,1715374780.273059,-1.13,-0.88,-1.1,278.93,49.62,-207.4
3119,1715374780.310832,-2.72,2.23,-2.53,242.8,49.8,-156.37
3148,1715374780.348592,-3.77,3.26,-3.63,242.8,49.8,-156.37
3149,1715374780.349888,-3.77,3.26,-3.63,110.05,-7.63,17.21
3177,1715374780.386089,-3.15,2.88,-3.46,110.05,-7.63,17.21
3180,1715374780.389956,-3.15,2.88,-3.46,-19.47,-76.35,214.42
3206,1715374780.424584,-2.1,0.36,-2.23,-19.47,-76.35,214.42
3207,1715374780.425936,-2.1,0.36,-2.23,-158.94,-70.74,361.57
3236,1715374780.464762,-1.21,-2.59,-0.75,-248.72,-29.3,442.69
3265,1715374780.503086,-0.55,-3.96,0.13,-248.72,-29.3,442.69
3267,1715374780.506017,-0.55,-3.96,0.13,-237.12,-7.02,473.39
3289,1715374780.534734,0.01,-4.14,0.58,-189.39,62.26,469.18
3319,1715374780.574001,-0.27,-3.58,0.77,-140.81,157.59,391.3
3347,1715374780.611515,-0.63,-2.61,0.63,-140.38,169.8,344.36
3378,1715374780.651242,-0.92,-2.23,0.46,-180.54,152.47,332.4
3407,1715374780.688721,-1.11,-2.21,0.27,-253.72,29.91,302.98
3437,1715374780.727807,-0.5,-2.8,0.26,-253.72,29.91,302.98
3439,1715374780.73044,-0.5,-2.8,0.26,-331.73,-106.99,292.72
3466,1715374780.76575,1.99,-3.24,0.35,-331.73,-106.99,292.72
3469,1715374780.769859,1.99,-3.24,0.35,-180.24,-151.0,351.26
3496,1715374780.805317,4.08,-4.35,0.19,-225.89,54.57,275.39
3530,1715374780.849186,6.09,-5.42,0.39,-19.59,-19.29,71.23
3554,1715374780.880677,3.29,-5.32,-0.66,-19.59,-19.29,71.23
3556,1715374780.883238,3.29,-5.32,-0.66,96.98,3.48,-353.21
3591,1715374780.928848,1.66,-4.54,-0.36,110.53,104.13,-289.0
3614,1715374780.959073,1.06,-3.79,-0.33,194.82,109.92,-346.8
3643,1715374780.996683,0.16,-2.99,-0.16,228.09,94.85,-386.96
3671,1715374781.033254,-0.35,-2.58,-0.29,236.57,23.44,-427.8
3701,1715374781.07238,-0.47,-2.56,-0.4,181.7,-10.86,-460.39
3729,1715374781.108944,-0.27,-2.77,-0.13,73.0,-72.75,-493.71
3759,1715374781.148499,-0.09,-2.8,-0.29,73.0,-72.75,-493.71
3760,1715374781.149789,-0.09,-2.8,-0.29,48.89,8.0,-477.91
3789,1715374781.187351,0.3,-2.9,-0.39,-1.59,13.06,-471.62
3820,1715374781.227714,-0.4,-2.42,-0.8,107.85,163.15,-398.8
3849,1715374781.265149,-0.92,-1.31,-0.84,82.76,161.07,-331.91
3878,1715374781.302711,-2.1,0.02,-0.43,77.94,60.73,-332.21
3908,1715374781.342203,-4.91,1.74,-1.08,72.69,-141.6,-261.66
3937,1715374781.379946,-4.93,1.57,-0.77,17.58,-35.22,8.3
3967,1715374781.418773,-3.33,-0.11,0.15,17.58,-35.22,8.3
3968,1715374781.420075,-3.33,-0.11,0.15,9.77,-29.11,84.59
3996,1715374781.456397,-2.88,-1.58,-0.57,9.77,-29.11,84.59
3998,1715374781.45897,-2.88,-1.58,-0.57,157.41,-68.85,257.57
4026,1715374781.495376,-0.63,-2.74,-0.99,157.41,-68.85,257.57
4027,1715374781.496672,-0.63,-2.74,-0.99,120.3,-54.87,643.07
4054,1715374781.533541,0.97,-4.02,-0.88,120.3,-54.87,643.07
4056,1715374781.536118,0.97,-4.02,-0.88,2.38,-98.88,689.88
4083,1715374781.571177,1.57,-4.68,-0.34,2.38,-98.88,689.88
4086,1715374781.575051,1.57,-4.68,-0.34,-31.49,-123.47,612.49
4113,1715374781.610158,1.41,-4.01,0.1,-26.67,9.22,541.02
4143,1715374781.648962,0.44,-3.25,0.54,-66.41,120.73,553.04
4173,1715374781.688186,-0.03,-3.03,0.38,-66.41,120.73,553.04
4175,1715374781.690771,-0.03,-3.03,0.38,-86.36,110.84,549.13
4204,1715374781.728853,0.66,-3.15,0.24,-86.36,110.84,549.13
4206,1715374781.731505,0.66,-3.15,0.24,-137.7,-28.93,503.11
4233,1715374781.766769,2.04,-2.39,0.14,-88.07,5.0,401.49
4263,1715374781.805698,4.05,-3.52,0.63,-124.51,91.0,327.45
4291,1715374781.841976,7.63,-4.24,0.33,155.15,295.59,417.18
4320,1715374781.879603,4.16,-6.41,2.06,25.39,-140.08,-369.38
4351,1715374781.919887,1.17,-4.77,-0.16,328.0,103.33,-319.34
4380,1715374781.957848,0.78,-4.4,0.64,254.15,67.99,-315.31
4410,1715374781.996536,0.14,-3.16,0.21,254.15,67.99,-315.31
4413,1715374782.000465,0.14,-3.16,0.21,302.98,4.58,-325.13
4439,1715374782.034221,-0.09,-2.62,-0.09,302.98,4.58,-325.13
4441,1715374782.03687,-0.09,-2.62,-0.09,314.51,-73.24,-385.93
4469,1715374782.073537,-0.19,-2.5,-0.29,288.15,-101.93,-468.38
4500,1715374782.114405,-0.09,-2.5,-0.34,213.62,-78.74,-503.17
4529,1715374782.152071,0.24,-2.52,-0.11,160.83,-83.8,-513.67
4568,1715374782.202809,0.52,-2.51,-0.1,160.83,-83.8,-513.67
4571,1715374782.206696,0.52,-2.51,-0.1,132.08,0.06,-451.29
4586,1715374782.226309,0.28,-2.29,-0.11,132.08,0.06,-451.29
4588,1715374782.229004,0.28,-2.29,-0.11,117.86,62.62,-346.25
4617,1715374782.268139,-0.42,-1.43,-0.37,124.76,15.87,-347.78
4646,1715374782.306252,-2.11,-0.36,-1.08,24.96,-146.48,-393.37
4674,1715374782.343042,-4.19,0.19,-0.62,24.96,-146.48,-393.37
4675,1715374782.344384,-4.19,0.19,-0.62,-52.55,-69.76,-281.13
4705,1715374782.38366,-6.05,0.7,-0.93,-7.32,96.56,54.2
4734,1715374782.421194,-5.68,-0.24,-0.53,-7.32,96.56,54.2
4735,1715374782.422493,-5.68,-0.24,-0.53,-23.38,-152.34,212.65
4764,1715374782.460238,-2.59,-2.75,-1.23,87.4,-265.2,502.01
4793,1715374782.497713,1.28,-4.8,-1.87,59.63,-289.55,617.43
4823,1715374782.536712,2.36,-4.33,-1.56,59.63,-289.55,617.43
4825,1715374782.539433,2.36,-4.33,-1.56,145.39,-308.53,502.38
4853,1715374782.575913,2.28,-3.78,-1.05,174.62,-182.07,465.76
4881,1715374782.612856,1.72,-3.11,-0.48,174.62,-182.07,465.76
4882,1715374782.614135,1.72,-3.11,-0.48,173.4,78.55,583.86
4901,1715374782.652332,0.81,-2.65,-0.1,93.93,210.27,599.18
4932,1715374782.691482,0.29,-2.58,0.12,-17.82,89.6,467.9
4961,1715374782.72924,0.14,-2.89,0.37,-67.93,9.28,457.7
4993,1715374782.770624,2.47,-2.43,0.06,-38.15,-49.68,416.32
5022,1715374782.808245,3.8,-2.88,0.16,-74.58,66.83,324.4
5051,1715374782.846842,6.77,-3.17,-1.09,-74.58,66.83,324.4
5052,1715374782.848111,6.77,-3.17,-1.09,113.89,24.9,254.03
5079,1715374782.883421,4.49,-4.61,-0.89,113.89,24.9,254.03
5080,1715374782.884724,4.49,-4.61,-0.89,-23.56,14.89,-350.28
5109,1715374782.922199,1.81,-5.18,-0.94,42.54,240.97,-286.25
5139,1715374782.961142,1.27,-4.53,-0.3,142.27,240.66,-235.29
5169,1715374783.000485,0.56,-3.37,-0.22,222.29,113.04,-348.88
5197,1715374783.037127,0.06,-2.74,-0.17,222.29,113.04,-348.88
5202,1715374783.0437,0.06,-2.74,-0.17,243.16,55.18,-400.76
5229,1715374783.078829,-0.36,-2.36,-0.39,260.5,31.07,-409.0
5258,1715374783.116363,-0.25,-2.21,-0.44,183.9,8.0,-413.51
5287,1715374783.154231,-0.09,-2.24,-0.34,183.9,8.0,-413.51
5288,1715374783.155511,-0.09,-2.24,-0.34,131.53,35.1,-371.34
5316,1715374783.191892,0.01,-2.18,-0.36,135.93,52.49,-345.4
5345,1715374783.229661,0.13,-2.26,-0.45,135.93,52.49,-345.4
5346,1715374783.230977,0.13,-2.26,-0.45,144.84,74.04,-308.53
5375,1715374783.268768,0.23,-2.17,-0.58,105.53,39.55,-365.54
5399,1715374783.300186,-0.11,-2.16,-0.79,117.19,144.1,-331.12
5427,1715374783.336728,-1.57,-0.53,-1.3,116.46,96.92,-333.56
5461,1715374783.381405,-4.7,2.0,-1.07,4.15,10.86,-386.05
5489,1715374783.41789,-6.32,2.04,-1.05,12.82,-95.46,-26.55
5516,1715374783.453078,-4.57,1.29,-1.47,-24.05,-185.06,218.14
5545,1715374783.49038,-3.08,-0.66,-1.34,-24.05,-185.06,218.14
5549,1715374783.495094,-3.08,-0.66,-1.34,-33.81,-313.05,365.17
5577,1715374783.531394,-0.65,-3.37,-1.98,19.9,-342.35,559.57
5605,1715374783.568183,0.71,-4.36,-2.13,-17.76,-271.12,581.67
5634,1715374783.605852,1.19,-4.34,-1.55,-17.76,-271.12,581.67
5636,1715374783.608523,1.19,-4.34,-1.55,5.25,-241.15,488.65
5664,1715374783.644999,1.1,-3.77,-0.77,46.2,-126.95,446.11
5696,1715374783.686224,0.48,-3.1,-0.3,54.63,-25.39,438.78
5725,1715374783.723923,0.05,-2.65,-0.02,15.56,-12.02,463.2
5754,1715374783.761673,0.04,-2.81,-0.03,15.56,-12.02,463.2
5756,1715374783.764297,0.04,-2.81,-0.03,12.21,-85.45,454.9
5784,1715374783.800509,1.23,-2.46,-0.44,27.28,-83.8,461.3
5813,1715374783.838866,2.71,-2.71,-0.67,27.28,-83.8,461.3
5814,1715374783.840184,2.71,-2.71,-0.67,0.31,43.95,368.9
5842,1715374783.87672,3.96,-4.71,-1.25,0.31,43.95,368.9
5844,1715374783.879209,3.96,-4.71,-1.25,16.24,170.41,353.21
5872,1715374783.915459,3.11,-4.48,-1.3,16.24,170.41,353.21
5874,1715374783.918025,3.11,-4.48,-1.3,46.94,93.99,-271.06
5903,1715374783.955897,1.36,-6.08,0.36,36.01,136.11,-456.73
5933,1715374783.995122,0.01,-4.52,0.09,195.25,287.35,-186.46
5960,1715374784.030343,0.3,-3.82,0.42,240.6,61.46,-331.97
5991,1715374784.07071,-0.1,-2.95,0.13,317.14,49.99,-357.12
6019,1715374784.107276,-0.58,-2.56,-0.35,343.02,-30.27,-433.29
6048,1715374784.1455,-0.65,-2.55,-0.47,277.53,-72.45,-474.85
6078,1715374784.184618,-0.38,-2.71,-0.27,232.36,-44.62,-435.0
6108,1715374784.223695,-0.05,-2.71,-0.15,208.5,2.08,-388.0
6139,1715374784.263737,-0.13,-2.44,-0.55,179.32,26.12,-456.79
6167,1715374784.299829,-0.28,-2.08,-0.64,96.92,-18.43,-494.93
6196,1715374784.337974,-1.43,-0.58,-1.17,96.92,-18.43,-494.93
6198,1715374784.3407,-1.43,-0.58,-1.17,71.29,82.82,-363.59
6220,1715374784.375425,-2.97,0.92,-1.07,14.16,-7.26,-302.37
6250,1715374784.414355,-4.47,1.19,-1.43,14.16,-7.26,-302.37
6251,1715374784.415632,-4.47,1.19,-1.43,135.99,122.25,43.03
6280,1715374784.453129,-4.0,1.31,-2.27,135.99,122.25,43.03
6281,1715374784.454446,-4.0,1.31,-2.27,124.88,-30.52,180.97
6309,1715374784.490788,-3.08,0.48,-2.17,83.74,-90.94,318.6
6338,1715374784.52846,-2.02,-1.1,-1.68,-38.15,-65.06,510.13
6368,1715374784.567143,-0.82,-3.59,-0.69,-38.15,-65.06,510.13
6369,1715374784.568443,-0.82,-3.59,-0.69,-205.93,-102.6,617.31
6403,1715374784.612767,0.48,-5.05,0.17,-205.93,-102.6,617.31
6411,1715374784.62334,0.48,-5.05,0.17,-196.11,-50.05,618.04
6453,1715374784.678943,0.75,-4.37,0.58,-133.54,-63.23,465.88
6455,1715374784.681524,0.81,-3.55,1.04,-133.54,-63.23,465.88
6461,1715374784.689253,0.81,-3.55,1.04,-18.13,153.99,471.68
6485,1715374784.720197,-0.08,-2.38,0.61,-18.13,153.99,471.68
6486,1715374784.721475,-0.08,-2.38,0.61,-18.07,228.58,423.46
6531,1715374784.780742,-0.58,-2.02,0.49,-18.07,228.58,423.46
6532,1715374784.782075,-0.58,-2.02,0.49,-133.79,141.78,368.04
6543,1715374784.797141,-0.79,-2.31,0.55,-178.83,71.11,387.08
6573,1715374784.83608,0.56,-2.66,0.68,-150.7,-99.61,419.25
6603,1715374784.87509,2.85,-3.25,0.21,-150.7,-99.61,419.25
6604,1715374784.876382,2.85,-3.25,0.21,-122.74,-90.94,239.2
6632,1715374784.912946,8.0,-6.49,-1.09,-122.74,-90.94,239.2
6634,1715374784.915521,8.0,-6.49,-1.09,73.49,-434.02,289.31
6663,1715374784.953653,4.13,-5.0,0.19,-46.57,-27.65,-352.6
6692,1715374784.99115,0.89,-4.67,0.23,-46.57,-27.65,-352.6
6693,1715374784.992453,0.89,-4.67,0.23,80.57,356.87,-216.19
6722,1715374785.029717,0.52,-4.41,0.79,80.57,356.87,-216.19
6725,1715374785.033605,0.52,-4.41,0.79,134.09,141.05,-331.67
6752,1715374785.068696,0.11,-3.04,0.54,259.7,29.17,-339.78
6781,1715374785.106866,-0.16,-2.47,0.23,259.7,29.17,-339.78
6782,1715374785.108192,-0.16,-2.47,0.23,274.78,-53.65,-362.37
6810,1715374785.145936,-0.41,-2.39,-0.03,274.78,-53.65,-362.37
6812,1715374785.148532,-0.41,-2.39,-0.03,271.12,-153.81,-461.12
6839,1715374785.183493,-0.22,-2.56,-0.04,201.72,-115.97,-463.56
6870,1715374785.224158,-0.4,-2.54,-0.0,220.21,-31.62,-399.72
6898,1715374785.260916,-0.32,-2.22,-0.14,141.91,-110.72,-429.57
6927,1715374785.29885,0.21,-2.5,0.11,74.4,-104.86,-446.29
6956,1715374785.33657,-0.33,-2.05,-0.32,88.56,-0.06,-409.18
6986,1715374785.375269,-1.4,-0.87,-0.66,88.56,-0.06,-409.18
6987,1715374785.376559,-1.4,-0.87,-0.66,-16.85,-146.12,-437.62
7016,1715374785.414144,-4.01,0.32,-0.27,16.85,1.4,-353.15
7045,1715374785.451698,-6.09,2.0,-1.2,67.26,26.98,56.58
7075,1715374785.490715,-5.12,1.12,-1.22,67.26,26.98,56.58
7077,1715374785.493294,-5.12,1.12,-1.22,-24.17,-136.84,269.84
7104,1715374785.528619,-3.14,-0.84,-1.02,-24.17,-136.84,269.84
7106,1715374785.531231,-3.14,-0.84,-1.02,-12.88,-228.7,437.56
7135,1715374785.569178,-0.93,-3.57,-1.1,25.39,-288.33,553.96
7164,1715374785.606728,0.54,-4.77,-0.94,39.25,-282.23,518.19
7192,1715374785.642833,1.19,-4.4,-0.74,39.25,-282.23,518.19
7194,1715374785.645409,1.19,-4.4,-0.74,131.41,-148.32,502.44
7223,1715374785.683386,0.96,-3.8,-0.4,146.12,39.98,529.42
7252,1715374785.721302,0.36,-3.29,0.16,146.12,39.98,529.42
7255,1715374785.725182,0.36,-3.29,0.16,112.12,80.87,514.28
7282,1715374785.760088,0.32,-3.18,0.43,124.94,231.02,594.3
7312,1715374785.798725,0.24,-2.55,0.3,60.97,248.29,591.74
7342,1715374785.838036,0.69,-2.21,0.58,-74.22,80.26,413.33
7371,1715374785.875694,1.97,-3.13,0.7,-29.11,65.49,298.58
7401,1715374785.914773,2.24,-3.77,0.77,-29.11,65.49,298.58
7431,1715374785.95333,5.28,-6.01,0.39,-72.75,155.4,259.4
7433,1715374785.955913,5.28,-6.01,0.39,-90.7,-286.01,-88.13
7460,1715374785.990735,1.65,-5.53,0.15,122.8,57.8,-297.91
7490,1715374786.02956,0.11,-5.01,0.6,122.8,57.8,-297.91
7510,1715374786.055712,0.11,-5.01,0.6,144.41,114.26,-270.94
7519,1715374786.067389,-0.14,-4.23,0.25,144.41,114.26,-270.94
7522,1715374786.071249,-0.14,-4.23,0.25,292.54,28.69,-340.88
7549,1715374786.10646,-0.58,-3.08,0.02,292.54,28.69,-340.88
7550,1715374786.107752,-0.58,-3.08,0.02,298.65,-61.04,-400.33
7579,1715374786.145686,-0.86,-2.53,-0.11,280.09,-164.86,-478.27
7608,1715374786.18294,-0.98,-2.33,-0.18,280.09,-164.86,-478.27
7611,1715374786.186779,-0.98,-2.33,-0.18,218.87,-178.28,-495.97
7639,1715374786.223131,-0.81,-2.21,-0.01,144.65,-149.41,-467.65
