id,timestamp,acc_x,acc_y,acc_z,gyro_x,gyro_y,gyro_z
0,1715374667.676932,-0.1,0.37,0.91,50.17,-31.43,8.24
8,1715374667.687698,-0.01,0.32,0.88,50.17,-31.43,8.24
10,1715374667.6904,-0.01,0.32,0.88,27.59,-41.87,18.68
38,1715374667.727079,0.1,0.47,0.99,27.59,-41.87,18.68
39,1715374667.728363,0.1,0.47,0.99,26.31,-56.27,19.04
69,1715374667.767119,0.12,0.79,1.18,17.27,-37.66,-1.1
98,1715374667.80451,0.08,0.52,0.94,17.27,-37.66,-1.1
99,1715374667.80588,0.08,0.52,0.94,-51.03,10.38,4.94
127,1715374667.842288,0.01,0.46,0.92,-51.03,10.38,4.94
128,1715374667.84363,0.01,0.46,0.92,-65.92,9.77,-3.97
156,1715374667.880562,-0.05,0.31,0.85,-65.92,9.77,-3.97
157,1715374667.881894,-0.05,0.31,0.85,-39.25,6.59,-3.17
186,1715374667.919367,0.01,0.21,0.68,-39.25,6.59,-3.17
188,1715374667.922011,0.01,0.21,0.68,-53.1,0.37,22.95
216,1715374667.958991,-0.01,0.13,0.07,-54.26,-17.27,21.73
247,1715374667.9992,0.06,-0.13,-0.45,-46.45,-119.69,32.96
276,1715374668.037011,0.51,-0.31,-0.54,-106.57,-155.03,71.72
306,1715374668.075741,0.97,-0.78,-0.46,-234.74,-170.9,51.15
335,1715374668.113354,1.81,-1.45,0.54,-333.8,-229.43,42.91
365,1715374668.152903,2.44,-2.14,2.7,-370.97,-122.99,-42.11
399,1715374668.197087,1.12,-2.18,2.63,-333.92,52.06,5.07
423,1715374668.230815,0.99,-1.31,2.15,-52.25,-164.43,-44.68
483,1715374668.308507,0.76,-0.68,2.19,-5.86,-116.94,-40.22
484,1715374668.309817,0.19,-0.28,1.7,-39.06,-5.92,-20.51
513,1715374668.347684,-0.25,0.02,1.69,53.71,14.53,-21.67
542,1715374668.385425,-0.59,-0.1,1.79,53.71,14.53,-21.67
544,1715374668.388009,-0.59,-0.1,1.79,94.24,124.88,42.24
572,1715374668.424403,-0.57,-0.4,1.61,94.24,124.88,42.24
574,1715374668.42699,-0.57,-0.4,1.61,127.08,231.75,117.61
602,1715374668.464,-0.09,-1.31,1.8,275.02,171.26,153.56
632,1715374668.503038,1.05,-1.83,2.42,296.87,288.82,203.86
661,1715374668.540989,1.2,-2.28,2.31,408.33,210.14,206.85
690,1715374668.578254,0.99,-1.91,0.99,408.33,210.14,206.85
692,1715374668.580827,0.99,-1.91,0.99,544.62,86.55,168.33
714,1715374668.609259,0.72,-0.83,0.06,455.32,-14.16,148.74
743,1715374668.647161,0.05,-0.38,-1.59,361.15,-174.5,91.0
774,1715374668.686758,-0.2,-0.38,-1.65,361.15,-174.5,91.0
776,1715374668.689333,-0.2,-0.38,-1.65,153.5,-255.43,105.41
805,1715374668.726627,0.08,-1.04,-1.22,-176.15,-186.22,232.12
834,1715374668.764251,0.86,-1.35,-0.8,-275.09,-240.6,256.9
862,1715374668.801378,1.06,-1.27,-0.35,-275.09,-240.6,256.9
864,1715374668.803844,1.06,-1.27,-0.35,-278.26,-218.99,259.16
892,1715374668.840022,0.94,-1.3,-0.49,-334.9,-195.5,242.43
922,1715374668.87865,1.15,-1.62,-0.07,-328.37,-252.99,233.46
952,1715374668.917608,1.51,-1.85,0.35,-328.37,-252.99,233.46
953,1715374668.918943,1.51,-1.85,0.35,-283.87,-232.24,240.72
981,1715374668.955113,1.95,-2.77,0.33,-309.45,-158.33,276.12
1011,1715374668.994248,3.26,-2.42,0.98,-300.48,-172.55,322.14
1040,1715374669.032163,3.11,-1.27,2.26,-300.48,-172.55,322.14
1042,1715374669.034761,3.11,-1.27,2.26,-261.11,68.79,103.58
1069,1715374669.070241,1.72,-2.14,1.39,-46.33,174.32,-14.34
1098,1715374669.10813,1.6,-1.53,0.43,-46.33,174.32,-14.34
1100,1715374669.110702,1.6,-1.53,0.43,183.84,37.29,-6.65
1127,1715374669.146644,1.6,-0.68,0.4,217.65,-23.38,-69.64
1157,1715374669.185855,1.34,-0.47,0.76,186.04,52.37,-128.72
1186,1715374669.223552,1.18,-0.29,0.56,198.06,114.07,-157.59
1216,1715374669.262421,1.56,-0.53,0.63,260.62,138.24,-268.92
1247,1715374669.302393,1.78,-1.23,0.64,260.62,138.24,-268.92
1248,1715374669.303685,1.78,-1.23,0.64,302.37,167.54,-294.98
1277,1715374669.341193,2.48,-1.37,0.88,330.44,229.74,-399.72
1311,1715374669.386016,1.54,-1.81,0.04,332.34,244.63,-361.76
1335,1715374669.417642,1.03,-1.1,-0.3,332.34,244.63,-361.76
1338,1715374669.421598,1.03,-1.1,-0.3,372.38,35.52,-387.57
1394,1715374669.494436,-0.01,-0.73,-0.22,372.38,35.52,-387.57
1406,1715374669.509906,-0.87,-0.56,-0.28,110.23,-36.25,-128.3
1425,1715374669.534459,-0.97,-0.78,-0.53,-81.24,45.29,122.99
1461,1715374669.581256,-0.47,-1.36,-0.79,-206.97,14.04,361.51
1482,1715374669.608268,0.94,-1.58,-0.68,-283.81,-120.42,467.35
1513,1715374669.64854,1.6,-1.36,-0.27,-249.08,-264.28,380.68
1543,1715374669.687352,1.71,-0.97,0.24,-141.48,-289.0,316.28
1573,1715374669.72699,1.37,-0.7,-0.06,-93.44,-233.22,269.65
1602,1715374669.765107,1.36,-0.95,0.01,-89.78,-217.22,306.88
1631,1715374669.802421,1.79,-1.17,-0.08,-189.82,-103.64,283.94
1661,1715374669.841394,2.13,-1.99,-0.13,-189.82,-103.64,283.94
1663,1715374669.843963,2.13,-1.99,-0.13,-239.87,-104.13,315.67
1692,1715374669.881584,3.3,-1.22,0.63,-239.87,-104.13,315.67
1693,1715374669.882905,3.3,-1.22,0.63,-210.51,-78.67,256.71
1721,1715374669.919165,3.28,-1.25,1.38,-210.51,-78.67,256.71
1722,1715374669.920467,3.28,-1.25,1.38,-205.69,125.18,120.73
1750,1715374669.95683,2.22,-1.16,0.88,-205.69,125.18,120.73
1752,1715374669.959555,2.22,-1.16,0.88,113.34,167.24,-42.79
1780,1715374669.995954,1.78,-0.72,-0.09,113.34,167.24,-42.79
1782,1715374669.998579,1.78,-0.72,-0.09,302.61,19.17,-146.91
1811,1715374670.036617,1.73,-0.54,0.48,237.24,51.27,-195.86
1840,1715374670.073994,1.45,-0.48,0.29,158.08,214.11,-203.92
1869,1715374670.111926,1.52,-0.59,0.45,158.08,214.11,-203.92
1871,1715374670.114631,1.52,-0.59,0.45,239.44,186.04,-278.69
1899,1715374670.15227,2.23,-1.25,0.85,162.96,409.97,-268.07
1928,1715374670.189386,2.01,-1.7,0.14,162.96,409.97,-268.07
1931,1715374670.193233,2.01,-1.7,0.14,167.91,529.66,-175.23
1958,1715374670.227826,1.72,-1.78,0.41,442.75,269.65,-240.23
1987,1715374670.265863,1.05,-1.12,-0.15,442.75,269.65,-240.23
1989,1715374670.26842,1.05,-1.12,-0.15,406.13,193.42,-238.89
2017,1715374670.304993,0.07,-0.55,-0.76,406.13,193.42,-238.89
2018,1715374670.306272,0.07,-0.55,-0.76,416.63,-42.72,-270.08
2040,1715374670.344143,-0.99,0.25,-1.05,416.63,-42.72,-270.08
2042,1715374670.34669,-0.99,0.25,-1.05,347.11,-249.82,-197.45
2071,1715374670.383608,-0.82,-0.1,-0.51,44.49,-235.9,49.99
2099,1715374670.420181,-0.35,-0.39,-0.21,-180.48,-62.74,235.47
2130,1715374670.460162,0.13,-1.23,-0.29,-286.99,-45.72,362.3
2160,1715374670.499328,1.02,-1.48,-0.07,-189.45,-166.93,448.67
2191,1715374670.539533,1.51,-0.84,-0.24,-189.45,-166.93,448.67
2192,1715374670.540883,1.51,-0.84,-0.24,-58.96,-196.84,333.25
2221,1715374670.579392,1.22,-0.73,-0.6,-105.16,-136.29,249.39
2250,1715374670.617212,1.13,-0.89,-0.6,-276.12,-167.54,180.24
2281,1715374670.657253,1.23,-1.36,-0.11,-276.12,-167.54,180.24
2282,1715374670.658536,1.23,-1.36,-0.11,-377.62,-105.59,177.49
2310,1715374670.695647,1.54,-2.18,0.03,-432.37,-67.93,208.98
2342,1715374670.737222,2.2,-2.82,0.11,-432.37,-67.93,208.98
2354,1715374670.752752,2.2,-2.82,0.11,-408.94,-104.55,257.87
2374,1715374670.778842,3.9,-1.94,1.19,-408.94,-104.55,257.87
2375,1715374670.780139,3.9,-1.94,1.19,-232.6,-221.92,250.31
2411,1715374670.82654,3.12,-1.46,2.12,-37.48,-74.95,39.55
2433,1715374670.85515,1.83,-1.02,0.79,226.44,-4.88,-44.8
2459,1715374670.889477,1.69,-0.15,0.21,244.08,-14.83,-73.3
2488,1715374670.926925,1.41,0.05,0.44,182.07,79.9,-121.58
2518,1715374670.966408,1.07,0.03,0.38,182.07,79.9,-121.58
2519,1715374670.967692,1.07,0.03,0.38,239.87,86.85,-164.86
2547,1715374671.004139,1.47,0.03,0.18,239.87,86.85,-164.86
2550,1715374671.008,1.47,0.03,0.18,277.34,86.43,-265.62
2577,1715374671.043076,1.7,-0.61,0.39,277.34,86.43,-265.62
2579,1715374671.045733,1.7,-0.61,0.39,159.06,178.77,-315.67
2607,1715374671.081831,2.74,-0.81,0.93,159.06,178.77,-315.67
2610,1715374671.085818,2.74,-0.81,0.93,91.55,324.4,-300.96
2638,1715374671.122015,3.09,-1.71,1.28,119.51,471.31,-324.46
2666,1715374671.159235,2.43,-1.53,1.56,119.51,471.31,-324.46
2668,1715374671.161844,2.43,-1.53,1.56,224.12,466.31,-227.6
2694,1715374671.195671,1.25,-1.65,0.48,224.12,466.31,-227.6
2696,1715374671.198252,1.25,-1.65,0.48,438.66,260.68,-294.49
2724,1715374671.234584,-0.08,-1.18,-1.0,438.66,260.68,-294.49
2726,1715374671.237178,-0.08,-1.18,-1.0,386.11,101.14,-231.93
2754,1715374671.273578,-0.9,-0.5,-1.05,195.68,-7.51,-72.08
2783,1715374671.311413,-1.51,-0.71,-1.69,195.68,-7.51,-72.08
2785,1715374671.314136,-1.51,-0.71,-1.69,-81.48,86.12,106.99
2814,1715374671.351668,-0.57,-1.56,-1.89,-287.11,-57.13,312.99
2843,1715374671.389326,0.91,-1.87,-1.14,-234.31,-342.77,311.52
2872,1715374671.426799,1.61,-1.36,-0.56,-234.31,-342.77,311.52
2873,1715374671.428097,1.61,-1.36,-0.56,-218.44,-366.21,309.57
2904,1715374671.468668,1.7,-1.41,-0.41,-286.68,-340.82,233.7
2932,1715374671.50514,1.73,-1.49,0.1,-258.91,-300.05,252.56
2961,1715374671.542511,1.82,-1.71,-0.04,-258.91,-300.05,252.56
2962,1715374671.543823,1.82,-1.71,-0.04,-273.32,-183.04,327.45
2992,1715374671.583077,2.33,-3.13,-0.4,-330.87,-216.61,305.36
3021,1715374671.620959,4.33,-3.16,0.25,-231.69,-325.56,441.83
3051,1715374671.65938,5.09,-0.67,2.07,-231.69,-325.56,441.83
3053,1715374671.662018,5.09,-0.67,2.07,-163.27,-193.24,211.43
3080,1715374671.697027,1.95,-1.72,1.74,29.05,177.8,-98.69
3110,1715374671.735549,1.63,-0.54,-0.21,256.41,48.52,-9.34
3140,1715374671.775028,1.61,-0.03,0.25,213.26,-36.07,-139.28
3170,1715374671.81369,1.33,-0.35,0.75,213.26,-36.07,-139.28
3172,1715374671.816366,1.33,-0.35,0.75,202.45,67.63,-155.03
3200,1715374671.852875,1.77,0.02,0.44,201.42,125.12,-240.17
3231,1715374671.893387,1.93,-1.04,0.64,176.09,195.62,-353.21
3260,1715374671.931178,2.28,-1.31,0.81,175.96,308.47,-338.13
3291,1715374671.971332,2.44,-2.05,0.67,190.86,429.08,-335.39
3328,1715374672.018908,2.73,-2.6,1.68,236.76,568.73,-202.7
3358,1715374672.058069,1.75,-1.95,-0.12,369.57,634.22,-93.08
3380,1715374672.086739,0.0,-0.76,-1.54,425.17,241.21,-59.2
3427,1715374672.148189,-0.25,0.44,-1.57,425.17,241.21,-59.2
3430,1715374672.152078,-0.25,0.44,-1.57,315.98,-31.74,-4.46
3437,1715374672.161098,-0.36,0.92,-1.92,-61.34,7.02,81.18
3460,1715374672.190903,-0.25,0.36,-1.98,-306.15,2.32,68.66
3490,1715374672.23014,0.22,-1.4,-1.4,-451.42,-193.3,36.44
3519,1715374672.267727,0.9,-2.09,-0.47,-451.42,-193.3,36.44
3520,1715374672.269008,0.9,-2.09,-0.47,-402.04,-369.08,88.26
3542,1715374672.297316,1.21,-1.66,0.08,-402.04,-369.08,88.26
3544,1715374672.299885,1.21,-1.66,0.08,-343.2,-390.26,112.37
3571,1715374672.334828,0.97,-1.26,0.35,-288.02,-284.36,144.47
3600,1715374672.372941,1.06,-0.86,0.05,-288.02,-284.36,144.47
3602,1715374672.377096,1.06,-0.86,0.05,-329.9,-184.14,198.24
3629,1715374672.411971,0.99,-1.17,-0.27,-287.72,-235.72,79.9
3658,1715374672.44997,1.52,-2.61,-0.46,-338.38,-301.03,134.03
3690,1715374672.491808,2.87,-3.7,0.18,-358.95,-341.31,161.74
3718,1715374672.528579,4.11,-2.62,1.8,-358.95,-341.31,161.74
3719,1715374672.529893,4.11,-2.62,1.8,-213.99,-253.17,208.98
3748,1715374672.567162,2.42,-1.91,1.91,-165.34,97.84,65.43
3777,1715374672.605195,1.61,-1.28,0.75,186.52,45.04,14.16
3806,1715374672.64293,1.6,-0.34,0.14,247.5,4.82,-49.99
3836,1715374672.681943,1.12,-0.22,0.42,247.5,4.82,-49.99
3837,1715374672.68327,1.12,-0.22,0.42,209.17,8.79,-99.55
3866,1715374672.721007,1.03,0.05,0.17,207.7,65.25,-97.47
3895,1715374672.758719,1.56,-0.15,0.79,207.7,65.25,-97.47
3905,1715374672.771323,1.56,-0.15,0.79,262.63,-23.8,-232.79
3925,1715374672.797262,1.73,-0.88,0.94,262.63,-23.8,-232.79
3926,1715374672.798545,1.73,-0.88,0.94,212.46,216.55,-243.77
3955,1715374672.836126,2.06,-1.3,1.05,266.48,319.09,-328.31
3984,1715374672.873878,2.08,-2.1,1.14,288.21,438.66,-319.58
4014,1715374672.912371,1.36,-1.33,0.71,400.33,247.01,-309.63
4044,1715374672.951169,0.34,-0.67,0.13,462.71,-31.43,-381.96
4073,1715374672.988749,-0.58,-0.44,-0.27,306.46,-203.92,-276.06
4103,1715374673.0279,-1.11,-0.6,-0.26,118.29,-135.38,-71.53
4132,1715374673.065436,-0.94,-1.3,-0.49,118.29,-135.38,-71.53
4133,1715374673.066713,-0.94,-1.3,-0.49,-141.48,-2.69,187.38
4162,1715374673.104448,-0.0,-1.7,-0.75,-141.48,-2.69,187.38
4163,1715374673.105738,-0.0,-1.7,-0.75,-178.65,-21.61,378.48
4193,1715374673.145045,0.72,-1.58,-1.24,-193.36,-124.33,384.89
4222,1715374673.182673,0.75,-1.53,-0.89,-328.37,-137.88,317.81
4254,1715374673.223737,1.03,-1.68,-0.8,-428.34,-171.63,274.66
4282,1715374673.260625,1.79,-2.24,-0.14,-365.54,-319.46,252.93
4327,1715374673.319307,2.89,-2.4,-0.26,-186.83,-336.36,299.01
4341,1715374673.337383,3.85,-2.77,-0.54,-186.83,-336.36,299.01
4346,1715374673.344118,3.85,-2.77,-0.54,-151.25,-431.52,308.53
4383,1715374673.393218,4.39,-1.3,1.55,-219.42,-257.69,293.46
4400,1715374673.414876,2.67,-1.19,1.63,-219.42,-257.69,293.46
4402,1715374673.417555,2.67,-1.19,1.63,-32.84,158.75,-29.72
4430,1715374673.454096,1.92,-1.37,-0.23,288.88,47.06,-88.81
4460,1715374673.492624,1.72,-0.39,-0.29,265.81,-77.76,-149.84
4492,1715374673.533944,1.42,-0.25,0.37,156.37,18.62,-211.55
4520,1715374673.570766,1.48,-0.21,0.34,75.87,145.81,-251.77
4548,1715374673.609597,1.79,-0.36,0.54,119.26,185.18,-346.56
4578,1715374673.648522,2.11,-1.21,0.66,157.84,399.54,-467.65
4607,1715374673.686207,1.92,-1.12,0.19,123.72,398.74,-312.56
4637,1715374673.725542,2.12,-1.44,0.9,185.24,388.49,-280.46
4667,1715374673.76436,1.84,-1.28,0.51,185.24,388.49,-280.46
4668,1715374673.765645,1.84,-1.28,0.51,345.52,326.84,-268.49
4696,1715374673.801684,0.74,-0.92,-0.27,345.52,326.84,-268.49
4698,1715374673.804237,0.74,-0.92,-0.27,395.26,194.7,-306.95
4720,1715374673.832594,-0.5,-0.54,-1.03,426.7,0.37,-313.6
4748,1715374673.86951,-1.15,-0.37,-0.96,426.7,0.37,-313.6
4750,1715374673.872094,-1.15,-0.37,-0.96,276.73,-179.69,-148.13
4778,1715374673.908634,-1.07,-0.66,-0.61,276.73,-179.69,-148.13
4780,1715374673.911383,-1.07,-0.66,-0.61,3.78,-104.55,119.2
4808,1715374673.947744,-0.38,-1.39,-0.54,3.78,-104.55,119.2
4810,1715374673.95038,-0.38,-1.39,-0.54,-272.71,9.34,387.76
4839,1715374673.988452,0.98,-1.78,-0.55,-386.6,-61.89,515.26
4867,1715374674.024845,1.64,-0.94,-0.5,-386.6,-61.89,515.26
4868,1715374674.026132,1.64,-0.94,-0.5,-318.3,-168.03,442.26
4896,1715374674.063103,1.26,-0.95,-1.27,-318.3,-168.03,442.26
4899,1715374674.066977,1.26,-0.95,-1.27,-286.44,-319.46,220.89
4926,1715374674.101882,1.69,-1.94,-0.46,-286.44,-319.46,220.89
4927,1715374674.10322,1.69,-1.94,-0.46,-359.92,-422.36,251.59
4959,1715374674.14491,2.41,-1.73,0.35,-351.26,-271.18,315.98
4985,1715374674.17922,2.45,-2.33,-0.17,-342.29,-166.5,316.89
5015,1715374674.217894,3.31,-1.75,0.19,-330.63,-160.46,302.06
5045,1715374674.256899,2.85,-1.26,1.09,-305.91,-9.34,144.53
5074,1715374674.294838,2.06,-1.71,1.0,-101.62,72.2,76.17
5104,1715374674.334231,1.86,-1.34,0.12,173.52,-34.06,-27.65
5133,1715374674.372013,1.46,-0.85,0.28,173.52,-34.06,-27.65
5135,1715374674.374588,1.46,-0.85,0.28,240.84,-88.01,-68.85
5164,1715374674.412097,1.36,-0.38,0.45,210.94,19.9,-62.68
5191,1715374674.450416,1.19,0.03,0.29,125.55,156.49,-77.82
5219,1715374674.487255,1.12,0.41,-0.05,125.55,156.49,-77.82
5220,1715374674.488533,1.12,0.41,-0.05,168.82,91.06,-163.21
5251,1715374674.528941,1.38,0.26,0.21,360.05,-118.53,-390.2
5300,1715374674.593006,1.53,-0.24,0.38,195.5,53.71,-393.37
5309,1715374674.604712,1.82,-0.43,0.08,67.63,197.51,-351.26
5338,1715374674.642333,2.14,-0.53,0.18,67.63,197.51,-351.26
5340,1715374674.645195,2.14,-0.53,0.18,54.81,289.12,-324.52
5370,1715374674.684079,2.68,-0.08,0.51,138.61,157.41,-317.26
5398,1715374674.719956,1.78,-0.43,0.17,236.33,38.76,-366.27
5428,1715374674.759253,0.53,-0.51,-0.16,218.51,-51.76,-281.37
5457,1715374674.796606,-0.49,-0.57,-0.15,50.48,0.98,-110.6
5487,1715374674.835445,-0.9,-0.93,-0.2,50.48,0.98,-110.6
5488,1715374674.836745,-0.9,-0.93,-0.2,-148.44,120.91,121.34
5516,1715374674.873143,-0.31,-1.36,-0.29,-260.5,85.14,379.15
5546,1715374674.912413,0.46,-1.16,-0.22,-226.93,-33.33,431.88
5576,1715374674.951367,0.78,-0.5,-0.23,-88.32,-144.47,341.06
5605,1715374674.988915,0.55,-0.54,-0.4,0.18,-214.42,250.37
5636,1715374675.029281,0.66,-0.66,-0.11,22.52,-227.54,291.38
5665,1715374675.067429,0.94,-0.72,-0.22,22.52,-227.54,291.38
5667,1715374675.069982,0.94,-0.72,-0.22,-31.43,-140.08,322.63
5695,1715374675.106377,1.51,-1.87,-0.58,-60.24,-159.0,312.5
5724,1715374675.144381,3.29,-2.58,-0.19,-60.24,-159.0,312.5
5726,1715374675.147061,3.29,-2.58,-0.19,-115.91,-216.43,383.67
5754,1715374675.183667,4.25,-0.8,1.03,-186.83,-14.71,215.45
5784,1715374675.222729,2.77,-1.42,0.92,-121.46,229.61,-13.37
5814,1715374675.261259,1.85,-0.86,-0.35,146.91,94.42,-68.66
5844,1715374675.300012,1.56,-0.29,-0.12,141.97,-30.76,-148.56
5876,1715374675.341349,1.51,-0.18,0.57,71.23,71.72,-187.13
5897,1715374675.368508,1.37,-0.12,0.35,35.52,180.18,-233.15
5927,1715374675.407404,1.39,-0.09,0.14,76.17,156.68,-313.29
5956,1715374675.445179,1.64,-0.49,0.53,76.17,156.68,-313.29
5957,1715374675.446515,1.64,-0.49,0.53,82.7,216.61,-364.2
5986,1715374675.484174,1.92,-0.64,0.11,57.68,316.16,-364.01
6016,1715374675.522782,2.45,-1.01,0.68,57.68,316.16,-364.01
6018,1715374675.525356,2.45,-1.01,0.68,193.24,227.05,-478.7
6045,1715374675.560941,1.72,-1.32,0.28,223.63,218.02,-424.38
6074,1715374675.598545,1.0,-0.64,0.16,310.97,44.19,-427.92
6103,1715374675.635958,-0.25,-0.23,-0.16,316.77,-132.39,-392.7
6132,1715374675.673918,-0.99,-0.16,0.06,316.77,-132.39,-392.7
6133,1715374675.675245,-0.99,-0.16,0.06,149.72,-88.01,-224.55
6162,1715374675.712634,-1.77,-0.71,-0.67,-94.54,103.27,55.97
6191,1715374675.750225,-1.17,-1.35,-0.72,-94.54,103.27,55.97
6194,1715374675.754097,-1.17,-1.35,-0.72,-222.11,54.75,393.19
6223,1715374675.791733,0.61,-1.57,-0.41,-277.77,-44.56,557.98
6251,1715374675.828501,1.5,-1.54,-0.01,-278.44,-106.45,522.4
6281,1715374675.867168,1.34,-0.99,-0.14,-208.56,-126.4,413.09
6311,1715374675.905899,1.22,-0.98,-0.29,-169.01,-216.98,283.14
6350,1715374675.957169,1.17,-1.16,0.08,-108.83,-301.33,268.55
6370,1715374675.982932,1.31,-1.2,-0.0,-59.02,-248.54,294.49
6400,1715374676.022067,1.92,-2.16,-0.44,-134.22,-191.77,322.81
6431,1715374676.062413,3.5,-2.12,-0.08,-74.77,-240.91,405.88
6459,1715374676.098971,4.08,-1.24,0.46,-74.77,-240.91,405.88
6462,1715374676.10287,4.08,-1.24,0.46,-104.74,-87.89,231.75
6491,1715374676.140528,3.03,-1.02,0.72,-85.08,99.37,57.62
6520,1715374676.178327,2.05,-0.67,-0.01,84.53,137.39,-87.46
6549,1715374676.215662,1.54,-0.44,-0.41,84.53,137.39,-87.46
6551,1715374676.218225,1.54,-0.44,-0.41,109.74,87.22,-158.57
6578,1715374676.253555,1.29,-0.27,0.0,109.74,87.22,-158.57
6580,1715374676.256037,1.29,-0.27,0.0,65.19,75.87,-177.55
6610,1715374676.295587,1.17,0.2,0.22,79.65,90.94,-232.97
6637,1715374676.330896,1.34,-0.07,0.18,91.13,106.45,-336.49
6666,1715374676.369125,1.52,-0.47,0.4,60.06,212.22,-356.32
6695,1715374676.407784,1.95,-0.83,0.22,39.86,326.35,-377.81
6724,1715374676.445807,2.47,-0.93,0.38,125.73,240.97,-458.25
6753,1715374676.486646,2.47,-0.72,0.89,207.58,140.99,-450.99
6782,1715374676.52445,1.56,-0.6,0.31,207.58,140.99,-450.99
6783,1715374676.525884,1.56,-0.6,0.31,235.78,50.9,-432.13
6810,1715374676.561152,0.29,-0.57,0.02,235.78,50.9,-432.13
6811,1715374676.562438,0.29,-0.57,0.02,245.61,-47.61,-342.35
6837,1715374676.60143,-0.99,-0.75,0.0,67.2,60.3,-109.44
6866,1715374676.638295,-1.81,-1.37,-0.74,67.2,60.3,-109.44
6869,1715374676.642304,-1.81,-1.37,-0.74,-109.99,156.86,189.94
6896,1715374676.677896,-0.49,-1.73,-0.82,-127.38,-14.47,449.77
6925,1715374676.715752,0.94,-1.78,-0.3,-127.38,-14.47,449.77
6926,1715374676.717089,0.94,-1.78,-0.3,-42.91,-146.61,518.43
6954,1715374676.753748,1.21,-1.07,-0.17,-27.4,-104.06,498.9
6985,1715374676.793786,0.98,-1.0,-0.28,-145.45,-46.88,451.54
7015,1715374676.832381,0.91,-0.98,-0.02,-193.73,27.47,444.76
7046,1715374676.872444,1.16,-1.28,-0.72,-317.87,15.2,378.91
7074,1715374676.908903,2.05,-3.01,-0.7,-266.97,-253.54,305.11
7104,1715374676.948072,3.47,-2.8,0.32,-103.64,-415.53,359.92
7135,1715374676.988705,3.78,-0.81,1.14,-109.68,-116.88,211.79
7162,1715374677.023967,2.46,-1.67,0.61,7.57,80.38,-92.9
7192,1715374677.062762,1.65,-1.5,-0.11,115.36,77.58,-101.44
7223,1715374677.102877,1.5,-0.73,-0.16,69.76,71.66,-130.31
7266,1715374677.158997,1.35,-0.46,0.14,34.73,120.06,-176.76
7286,1715374677.185023,1.22,-0.31,0.2,36.93,149.6,-210.33
7311,1715374677.21759,1.21,-0.16,0.26,36.93,149.6,-210.33
7313,1715374677.220218,1.21,-0.16,0.26,84.11,131.9,-286.8
7342,1715374677.258071,1.22,-0.47,0.34,84.11,131.9,-286.8
7344,1715374677.260704,1.22,-0.47,0.34,105.65,169.07,-339.6
7372,1715374677.296767,1.6,-0.51,0.45,99.73,251.28,-313.42
7400,1715374677.333759,2.58,-0.81,0.45,-45.72,523.07,-252.44
7429,1715374677.37097,1.94,-1.22,0.44,-45.72,523.07,-252.44
7431,1715374677.373528,1.94,-1.22,0.44,148.07,485.17,-254.15
7460,1715374677.410683,1.14,-0.84,0.26,148.07,485.17,-254.15
7461,1715374677.412,1.14,-0.84,0.26,275.88,284.3,-294.56
7489,1715374677.448445,-0.02,-0.74,-0.25,275.88,284.3,-294.56
7490,1715374677.449752,-0.02,-0.74,-0.25,308.53,110.53,-272.95
7519,1715374677.488198,-0.74,-0.52,-0.61,308.53,110.53,-272.95
7521,1715374677.490764,-0.74,-0.52,-0.61,199.34,-59.94,-99.3
7543,1715374677.519243,-0.75,-0.49,-0.28,65.67,-108.4,73.67
7572,1715374677.556965,-0.37,-0.74,-0.5,-155.64,13.73,301.57
7602,1715374677.596069,0.26,-1.39,-1.03,-305.24,-80.14,364.38
7632,1715374677.635096,1.02,-1.5,-0.95,-305.24,-80.14,364.38
7633,1715374677.636399,1.02,-1.5,-0.95,-178.59,-278.93,345.15
7662,1715374677.674053,0.99,-1.14,-0.49,-290.41,-233.7,298.4
