id,timestamp,acc_x,acc_y,acc_z,gyro_x,gyro_y,gyro_z
0,1715374715.071926,0.84,-0.55,0.2,62.62,23.74,-31.31
9,1715374715.083911,0.76,-0.48,0.31,77.88,-13.92,-36.01
37,1715374715.120866,0.79,-0.45,0.36,54.63,11.6,-29.6
67,1715374715.159572,0.84,-0.39,0.33,10.68,22.03,-18.19
96,1715374715.196669,0.78,-0.48,0.33,10.68,22.03,-18.19
98,1715374715.19932,0.78,-0.48,0.33,-7.57,26.61,-27.16
126,1715374715.235563,0.7,-0.58,0.25,-5.19,18.31,-8.0
155,1715374715.273561,0.67,-0.55,0.18,-8.3,8.12,17.15
178,1715374715.303699,0.57,-0.52,0.05,-18.62,2.5,22.22
208,1715374715.342525,0.45,-0.53,-0.15,-46.14,-0.49,37.72
239,1715374715.383053,0.37,-0.61,-0.24,-90.82,-16.72,51.57
268,1715374715.420644,0.34,-0.69,-0.18,-90.82,-16.72,51.57
270,1715374715.423216,0.34,-0.69,-0.18,-139.16,-28.08,75.2
302,1715374715.464593,0.42,-0.78,-0.22,-182.68,-38.51,103.03
327,1715374715.497781,0.89,-0.92,-0.1,-192.75,-72.2,116.09
364,1715374715.54591,1.34,-0.87,0.0,-98.21,-121.22,86.0
384,1715374715.574305,1.41,-1.04,0.24,-88.93,-66.59,48.34
441,1715374715.648746,1.42,-1.08,0.21,-115.91,32.1,50.48
443,1715374715.651308,1.57,-1.04,0.42,-115.91,32.1,50.48
445,1715374715.653897,1.57,-1.04,0.42,-114.5,78.98,19.59
474,1715374715.691622,1.48,-0.85,0.77,-83.56,109.56,-7.32
503,1715374715.729738,1.39,-0.46,0.82,-17.52,121.4,-45.1
533,1715374715.768428,1.25,-0.31,0.91,-17.52,121.4,-45.1
534,1715374715.769717,1.25,-0.31,0.91,78.86,74.77,-142.64
563,1715374715.807728,1.11,-0.04,0.98,69.95,169.07,-137.94
592,1715374715.846053,1.08,0.13,0.77,69.95,169.07,-137.94
594,1715374715.848669,1.08,0.13,0.77,83.13,242.92,-138.55
621,1715374715.883846,1.26,-0.27,0.79,83.13,242.92,-138.55
623,1715374715.886434,1.26,-0.27,0.79,198.36,215.09,-177.98
652,1715374715.923876,1.89,-0.36,0.81,164.79,328.19,-185.73
682,1715374715.962433,2.3,-0.92,1.08,226.14,290.34,-273.19
713,1715374716.002633,2.69,-1.15,1.96,226.44,333.01,-259.7
743,1715374716.041103,2.04,-1.08,0.6,401.31,192.08,-290.22
770,1715374716.076367,0.66,-0.84,-0.53,401.31,192.08,-290.22
771,1715374716.07773,0.66,-0.84,-0.53,526.67,-82.46,-350.59
799,1715374716.11436,-1.21,-1.18,-0.47,526.67,-82.46,-350.59
801,1715374716.116915,-1.21,-1.18,-0.47,407.78,-178.96,-223.33
829,1715374716.153203,-1.56,-1.67,-0.97,-115.11,135.8,291.2
859,1715374716.191947,0.42,-1.56,-0.83,-115.11,135.8,291.2
860,1715374716.193245,0.42,-1.56,-0.83,-277.4,67.57,547.73
889,1715374716.231398,1.19,-1.13,-0.7,-277.4,67.57,547.73
891,1715374716.234041,1.19,-1.13,-0.7,-119.87,-193.18,438.54
918,1715374716.26951,1.0,-0.96,-0.36,-119.87,-193.18,438.54
920,1715374716.272088,1.0,-0.96,-0.36,-40.89,-231.69,367.25
948,1715374716.308526,0.87,-1.0,-0.32,-40.89,-231.69,367.25
950,1715374716.310918,0.87,-1.0,-0.32,-120.67,-159.73,378.72
978,1715374716.347075,1.13,-1.0,0.04,-184.02,-109.25,366.03
1007,1715374716.384535,1.15,-1.4,0.03,-173.58,-116.94,333.44
1037,1715374716.423674,1.78,-2.16,-0.09,-173.58,-116.94,333.44
1039,1715374716.426246,1.78,-2.16,-0.09,-194.89,-126.89,299.19
1068,1715374716.463639,2.64,-2.93,0.18,-188.6,-132.2,321.11
1097,1715374716.50115,3.48,-1.43,1.31,-188.6,-132.2,321.11
1098,1715374716.502428,3.48,-1.43,1.31,-207.76,49.99,227.29
1128,1715374716.541495,2.24,-1.62,0.62,-151.86,292.79,46.45
1158,1715374716.579825,1.48,-0.99,0.02,2.14,167.18,-6.1
1188,1715374716.618463,1.19,-0.53,0.59,58.78,87.28,-64.21
1217,1715374716.655854,0.97,0.13,0.68,58.78,87.28,-64.21
1219,1715374716.658483,0.97,0.13,0.68,17.15,185.79,-56.03
1247,1715374716.695034,0.96,1.03,0.45,76.23,155.7,-127.5
1278,1715374716.735008,0.62,0.49,0.44,97.66,148.56,-204.1
1307,1715374716.772498,1.07,0.56,0.32,110.11,135.07,-193.36
1341,1715374716.817337,1.73,-0.13,0.93,166.38,108.4,-288.57
1376,1715374716.862704,2.34,-0.5,0.74,67.87,262.02,-228.58
1397,1715374716.890156,4.66,-1.17,3.0,185.79,218.51,-341.19
1448,1715374716.955807,3.96,-0.86,1.39,262.7,313.05,-316.77
1456,1715374716.966165,2.05,-1.41,0.63,406.68,148.99,-403.75
1485,1715374717.003995,0.15,-1.34,-0.45,327.76,113.4,-276.37
1514,1715374717.041507,-1.13,-1.38,-1.09,25.76,224.49,5.07
1544,1715374717.080309,-1.08,-1.77,-1.52,-4.21,94.06,230.04
1574,1715374717.118861,-0.06,-1.37,-1.68,62.07,-92.65,302.06
1596,1715374717.147694,0.14,-1.13,-1.61,6.29,-130.0,296.33
1625,1715374717.185569,0.32,-1.33,-1.36,6.29,-130.0,296.33
1627,1715374717.188154,0.32,-1.33,-1.36,-92.47,-220.89,293.27
1655,1715374717.224481,0.76,-1.62,-0.67,-92.47,-220.89,293.27
1657,1715374717.227061,0.76,-1.62,-0.67,-148.5,-243.77,364.87
1685,1715374717.263289,1.71,-1.38,-0.16,-209.23,-181.58,419.07
1715,1715374717.302637,1.89,-2.42,-0.4,-221.31,-180.79,370.61
1746,1715374717.342944,3.93,-2.8,0.15,-158.94,-251.71,432.01
1774,1715374717.379583,5.23,-1.45,0.21,-158.94,-251.71,432.01
1776,1715374717.382209,5.23,-1.45,0.21,-205.99,-73.18,345.58
1804,1715374717.418501,4.09,-0.87,1.73,-261.96,150.94,50.54
1835,1715374717.458452,2.69,-0.69,0.98,-136.66,213.81,18.49
1865,1715374717.497057,2.5,-0.21,1.07,-136.66,213.81,18.49
1866,1715374717.498366,2.5,-0.21,1.07,156.56,61.1,-181.27
1897,1715374717.537772,1.84,0.09,0.47,50.9,195.13,-171.94
1926,1715374717.575284,1.17,0.13,0.49,134.22,137.76,-244.81
1955,1715374717.613351,1.18,-0.06,0.48,161.01,182.56,-291.38
1985,1715374717.651955,1.33,-0.38,0.31,161.01,182.56,-291.38
1987,1715374717.654528,1.33,-0.38,0.31,106.69,296.81,-310.55
2015,1715374717.690573,1.5,-0.72,0.51,106.69,296.81,-310.55
2017,1715374717.693194,1.5,-0.72,0.51,199.89,295.41,-285.58
2046,1715374717.730892,2.19,-0.94,0.85,135.13,516.72,-246.15
2075,1715374717.768886,0.79,-1.11,-0.59,135.13,516.72,-246.15
2076,1715374717.770194,0.79,-1.11,-0.59,146.48,609.62,-144.53
2104,1715374717.807155,-0.64,-0.41,-0.54,146.48,609.62,-144.53
2106,1715374717.809764,-0.64,-0.41,-0.54,396.85,160.34,-165.71
2135,1715374717.847045,-1.18,-0.18,-0.76,396.85,160.34,-165.71
2136,1715374717.848334,-1.18,-0.18,-0.76,254.21,51.21,-51.27
2164,1715374717.884562,-0.81,-0.6,-0.72,-151.31,54.14,244.51
2192,1715374717.922459,-0.02,-1.36,-0.83,-260.25,-28.93,383.73
2225,1715374717.965737,1.0,-2.0,-0.61,-449.77,-82.95,489.32
2252,1715374718.000967,1.61,-1.58,-0.3,-540.34,-94.97,342.65
2286,1715374718.044474,1.26,-2.03,-0.24,-466.67,-187.19,227.72
2305,1715374718.069142,1.37,-2.07,-0.22,-370.61,-266.42,224.61
2335,1715374718.10845,1.82,-1.28,0.06,-264.16,-316.16,162.6
2365,1715374718.147507,1.8,-1.55,0.03,-220.4,-329.28,95.4
2404,1715374718.19855,2.31,-1.98,0.11,-198.36,-331.48,102.54
2423,1715374718.222961,2.76,-1.57,1.2,-198.36,-331.48,102.54
2425,1715374718.225532,2.76,-1.57,1.2,-181.34,-171.51,21.97
2448,1715374718.261647,1.86,-2.24,1.11,-181.34,-171.51,21.97
2450,1715374718.264298,1.86,-2.24,1.11,-56.4,13.92,-75.38
2478,1715374718.301208,2.48,-1.55,0.82,132.51,101.2,-98.45
2508,1715374718.340524,2.1,-1.51,0.29,106.63,245.67,-169.01
2537,1715374718.378612,1.48,-0.99,0.4,156.37,210.69,-157.04
2566,1715374718.416116,0.94,-0.45,0.49,156.37,210.69,-157.04
2567,1715374718.417397,0.94,-0.45,0.49,178.96,211.49,-171.08
2597,1715374718.455932,0.85,-0.22,0.56,224.37,194.82,-169.56
2626,1715374718.49357,1.06,-0.54,0.53,246.22,259.95,-167.05
2656,1715374718.532324,1.56,-0.87,0.53,108.22,422.91,-83.68
2685,1715374718.570059,1.76,-1.26,1.13,375.43,159.24,-201.78
2715,1715374718.608833,1.24,-1.4,0.16,555.48,188.48,-309.75
2745,1715374718.647821,-0.37,-0.5,-1.37,483.58,90.88,-309.27
2774,1715374718.685847,-1.25,-0.17,-1.33,132.51,-43.03,-137.51
2804,1715374718.724747,-1.08,-1.19,-1.26,132.51,-43.03,-137.51
2805,1715374718.726052,-1.08,-1.19,-1.26,-143.25,-20.81,146.48
2833,1715374718.762771,0.31,-2.14,-1.22,-275.21,-137.7,390.56
2863,1715374718.801317,1.43,-2.87,-0.63,-402.22,-168.27,447.88
2894,1715374718.841463,1.86,-3.5,-0.31,-418.15,-267.7,452.7
2923,1715374718.879545,2.89,-2.75,-0.23,-225.59,-403.44,460.39
2952,1715374718.917344,2.5,-2.04,-0.24,-188.84,-399.84,304.87
2981,1715374718.954723,2.3,-1.36,0.34,-129.03,-386.47,330.2
3011,1715374718.993699,3.18,-0.54,1.46,-129.03,-386.47,330.2
3013,1715374718.996324,3.18,-0.54,1.46,-117.55,-216.86,321.66
3042,1715374719.033707,2.17,-0.68,0.49,-117.55,-216.86,321.66
3044,1715374719.036399,2.17,-0.68,0.49,-33.08,108.15,48.52
3071,1715374719.071572,1.45,-1.26,-0.21,-33.08,108.15,48.52
3075,1715374719.07681,1.45,-1.26,-0.21,57.86,13.43,-51.51
3102,1715374719.112591,2.03,-1.4,0.07,18.55,21.67,-89.54
3129,1715374719.148343,2.39,-1.22,0.2,18.55,21.67,-89.54
3130,1715374719.149654,2.39,-1.22,0.2,-18.62,96.68,-116.64
3160,1715374719.188142,2.35,-1.13,0.79,38.94,152.16,-198.06
3189,1715374719.225978,1.97,-0.99,0.16,38.94,152.16,-198.06
3190,1715374719.22732,1.97,-0.99,0.16,94.12,264.71,-228.58
3218,1715374719.265616,1.6,-0.77,0.25,94.12,264.71,-228.58
3219,1715374719.267021,1.6,-0.77,0.25,208.8,107.18,-297.18
3247,1715374719.303596,1.79,-1.0,0.68,208.8,107.18,-297.18
3249,1715374719.306152,1.79,-1.0,0.68,205.38,236.57,-319.95
3279,1715374719.351096,1.48,-1.4,-0.13,240.23,271.42,-323.85
3307,1715374719.387423,1.44,-1.53,0.25,343.93,153.87,-385.62
3336,1715374719.425042,1.21,-1.64,0.02,319.64,188.72,-378.85
3387,1715374719.490989,0.24,-0.97,-0.41,284.0,102.29,-334.05
3391,1715374719.496249,-0.23,-0.27,0.05,284.0,102.29,-334.05
3392,1715374719.497552,-0.23,-0.27,0.05,192.32,67.99,-241.76
3421,1715374719.535069,-0.85,-0.3,-0.92,-74.1,316.53,-22.52
3449,1715374719.571875,-0.89,-0.61,-1.36,-290.04,176.76,198.67
3480,1715374719.612185,0.11,-1.36,-0.81,-290.04,176.76,198.67
3482,1715374719.614764,0.11,-1.36,-0.81,-433.65,-19.35,307.62
3509,1715374719.649911,0.97,-2.35,-0.57,-484.92,-167.3,321.66
3539,1715374719.689007,1.49,-2.69,-0.34,-418.52,-306.88,309.57
3568,1715374719.726764,2.19,-2.33,-0.16,-418.52,-306.88,309.57
3570,1715374719.729351,2.19,-2.33,-0.16,-288.76,-406.8,304.57
3598,1715374719.765888,2.18,-1.86,0.09,-288.76,-406.8,304.57
3599,1715374719.767238,2.18,-1.86,0.09,-180.24,-409.42,265.69
3628,1715374719.805035,1.84,-1.29,0.45,-161.13,-284.61,269.9
3658,1715374719.844236,1.86,-1.43,0.41,-161.13,-284.61,269.9
3660,1715374719.846843,1.86,-1.43,0.41,-168.21,-165.28,251.34
3688,1715374719.883211,2.26,-1.26,0.48,-97.29,-171.08,186.58
3718,1715374719.92122,2.51,-0.87,1.08,-97.29,-171.08,186.58
3720,1715374719.9238,2.51,-0.87,1.08,-84.72,-74.4,14.59
3747,1715374719.958518,1.93,-1.64,0.72,-84.72,-74.4,14.59
3749,1715374719.961087,1.93,-1.64,0.72,-2.56,73.12,-115.36
3779,1715374720.00023,1.7,-1.61,0.39,64.51,126.16,-136.84
3811,1715374720.042595,1.48,-1.43,0.33,64.51,126.16,-136.84
3813,1715374720.045378,1.48,-1.43,0.33,82.28,133.42,-177.73
3839,1715374720.079191,1.27,-1.04,0.53,82.28,133.42,-177.73
3840,1715374720.080491,1.27,-1.04,0.53,101.99,144.1,-195.31
3866,1715374720.11426,1.17,-0.66,0.61,101.99,144.1,-195.31
3868,1715374720.116732,1.17,-0.66,0.61,112.12,193.48,-234.86
3897,1715374720.154581,0.94,-0.84,0.77,151.67,252.69,-245.91
3929,1715374720.195715,1.06,-0.9,0.64,186.58,332.34,-180.91
3947,1715374720.219262,1.59,-0.96,0.74,186.58,332.34,-180.91
3948,1715374720.22054,1.59,-0.96,0.74,159.85,422.79,-107.18
3976,1715374720.256994,2.05,-1.23,1.15,159.85,422.79,-107.18
3979,1715374720.260855,2.05,-1.23,1.15,123.9,555.18,9.4
4006,1715374720.295967,1.38,-1.46,0.93,123.9,555.18,9.4
4007,1715374720.297284,1.38,-1.46,0.93,302.92,427.37,5.25
4029,1715374720.334591,0.54,-1.56,0.89,302.92,427.37,5.25
4033,1715374720.339723,0.54,-1.56,0.89,391.36,316.16,-21.85
4059,1715374720.373629,-0.44,-1.17,0.03,419.43,213.26,-10.62
4088,1715374720.412599,-1.24,-0.97,-0.52,231.99,107.36,52.61
4117,1715374720.451061,-1.2,-1.25,-0.63,-21.24,60.79,217.22
4145,1715374720.488377,-0.57,-1.66,-1.54,-57.68,-126.59,348.27
4174,1715374720.526222,0.99,-2.43,-1.27,-57.68,-126.59,348.27
4176,1715374720.528843,0.99,-2.43,-1.27,70.56,-423.34,485.84
4205,1715374720.56617,1.93,-1.73,-1.19,123.47,-367.13,533.02
4238,1715374720.609704,1.91,-1.93,-1.33,82.89,-272.22,533.94
4286,1715374720.672131,1.95,-1.28,-1.0,-33.81,-167.66,485.78
4296,1715374720.684964,1.97,-2.01,-0.72,-111.27,-201.9,406.13
4325,1715374720.722501,2.51,-3.08,-0.55,-53.83,-237.98,443.3
4378,1715374720.792192,4.18,-2.64,-0.61,27.28,-245.91,476.99
4381,1715374720.796102,4.04,-0.41,0.23,27.28,-245.91,476.99
4383,1715374720.798681,4.04,-0.41,0.23,-130.07,-66.47,240.3
4413,1715374720.837269,2.44,-1.2,0.87,-82.89,-0.31,-83.31
4442,1715374720.875024,1.37,-0.79,0.69,-82.89,-0.31,-83.31
4443,1715374720.876313,1.37,-0.79,0.69,97.66,-149.72,-118.29
4472,1715374720.914264,1.53,0.25,0.61,97.66,-149.72,-118.29
4473,1715374720.915546,1.53,0.25,0.61,155.27,-110.11,-155.52
4502,1715374720.953115,1.27,0.33,0.59,89.42,-74.52,-193.85
4532,1715374720.992557,1.61,0.16,1.14,126.59,-73.43,-277.59
4562,1715374721.031585,2.05,-0.68,1.58,118.1,44.01,-357.24
4592,1715374721.070466,2.59,-1.58,1.8,166.69,197.02,-415.95
4622,1715374721.109584,2.74,-2.26,1.41,235.41,234.74,-418.15
4651,1715374721.148731,3.12,-2.58,1.72,235.41,234.74,-418.15
4653,1715374721.151314,3.12,-2.58,1.72,329.71,190.06,-450.2
4682,1715374721.18888,1.61,-2.42,0.62,307.5,213.32,-333.5
4710,1715374721.225421,0.02,-2.05,0.13,193.36,157.1,-150.7
4740,1715374721.264425,-0.39,-1.72,-0.31,114.62,159.61,65.25
4770,1715374721.303565,-0.67,-1.33,-1.29,99.98,25.76,211.49
4799,1715374721.341653,-0.03,-1.32,-0.95,9.22,-60.67,325.62
4829,1715374721.380319,0.35,-1.29,-1.09,-29.54,-83.86,393.62
4858,1715374721.418504,0.85,-1.3,-1.13,-60.12,-126.65,431.58
4881,1715374721.44839,1.17,-1.22,-0.79,-60.12,-126.65,431.58
4883,1715374721.450957,1.17,-1.22,-0.79,-71.35,-163.15,412.17
4912,1715374721.488333,1.41,-1.57,-0.42,-62.68,-181.52,416.63
4940,1715374721.525353,1.92,-1.59,-0.26,-62.68,-181.52,416.63
4942,1715374721.528035,1.92,-1.59,-0.26,-89.84,-138.43,366.76
4970,1715374721.564267,2.35,-2.95,-0.34,-89.84,-138.43,366.76
4972,1715374721.566913,2.35,-2.95,-0.34,-118.9,-139.53,359.56
5000,1715374721.60318,3.37,-1.81,-0.12,-62.99,-169.07,372.07
5029,1715374721.640489,3.28,-0.55,0.88,-62.99,-169.07,372.07
5031,1715374721.643239,3.28,-0.55,0.88,-116.82,-35.4,126.77
5063,1715374721.685344,2.23,-1.32,0.73,-33.2,181.76,-94.54
5089,1715374721.718932,1.47,-0.76,0.02,25.39,187.19,-104.31
5119,1715374721.757803,1.08,-0.36,0.16,82.82,38.51,-182.37
5148,1715374721.795854,1.17,-0.12,0.72,128.36,-11.6,-233.46
5179,1715374721.836268,1.34,-0.02,0.46,123.35,83.01,-285.16
5207,1715374721.872537,1.22,-0.32,0.5,165.22,40.47,-358.03
5235,1715374721.909665,1.19,-0.45,0.51,165.22,40.47,-358.03
5265,1715374721.948533,1.19,-0.45,0.51,192.69,80.51,-357.12
5266,1715374721.949821,1.7,-0.64,0.22,138.55,164.73,-404.05
5295,1715374721.987178,1.91,-0.57,0.43,138.55,164.73,-404.05
5298,1715374721.991051,1.91,-0.57,0.43,200.44,41.93,-338.56
5334,1715374722.037659,3.61,0.02,0.61,152.65,-5.74,-313.84
5355,1715374722.064673,3.34,-0.06,0.65,152.65,-5.74,-313.84
5356,1715374722.06596,3.34,-0.06,0.65,145.75,-7.93,-371.52
5384,1715374722.103066,1.02,-0.74,0.23,44.25,35.95,-263.06
5413,1715374722.14096,-0.39,-1.26,0.25,44.25,35.95,-263.06
5415,1715374722.144139,-0.39,-1.26,0.25,-72.69,149.11,-95.4
5443,1715374722.180421,-1.26,-1.97,-0.49,-72.69,149.11,-95.4
5445,1715374722.182981,-1.26,-1.97,-0.49,15.81,100.83,52.73
5476,1715374722.223132,-0.98,-1.99,-0.52,83.62,-27.59,217.29
5502,1715374722.257148,-0.45,-1.66,-0.63,83.62,-27.59,217.29
5505,1715374722.260877,-0.45,-1.66,-0.63,40.41,-19.04,336.67
5533,1715374722.297371,0.08,-1.57,-0.43,40.41,-19.04,336.67
5534,1715374722.298659,0.08,-1.57,-0.43,-52.86,-22.71,432.62
5562,1715374722.334832,0.58,-1.31,-0.38,-52.86,-22.71,432.62
5563,1715374722.336164,0.58,-1.31,-0.38,-117.37,-3.23,463.99
5593,1715374722.375283,1.26,-2.09,-0.79,-152.77,-67.69,432.19
5620,1715374722.413378,2.86,-3.67,-0.67,-101.26,-275.21,482.18
5649,1715374722.451173,4.69,-2.79,0.15,-51.94,-178.96,488.71
5678,1715374722.489171,4.13,-0.93,1.04,-136.23,-5.8,227.6
5709,1715374722.529431,2.53,-1.14,0.57,-136.23,-5.8,227.6
5710,1715374722.530718,2.53,-1.14,0.57,20.94,156.8,37.29
5739,1715374722.568266,1.95,-0.06,-0.42,22.71,118.04,-9.34
5768,1715374722.605656,1.47,0.15,0.35,22.71,118.04,-9.34
5769,1715374722.60699,1.47,0.15,0.35,-7.69,67.87,-81.24
5797,1715374722.643088,1.26,0.64,0.33,41.38,81.3,-119.81
5828,1715374722.683351,1.54,0.69,-0.01,101.56,-29.66,-256.59
5857,1715374722.721293,1.69,-0.01,0.51,101.56,-29.66,-256.59
5858,1715374722.722645,1.69,-0.01,0.51,37.9,70.37,-314.64
5887,1715374722.7601,2.63,-0.01,0.09,3.42,170.41,-376.89
5917,1715374722.799095,3.47,-1.09,0.61,3.42,170.41,-376.89
5918,1715374722.800477,3.47,-1.09,0.61,46.2,218.08,-521.24
5946,1715374722.837262,2.86,-1.43,0.64,46.2,218.08,-521.24
5947,1715374722.838587,2.86,-1.43,0.64,18.55,380.86,-358.89
5977,1715374722.877104,2.42,-1.1,0.67,162.41,229.06,-361.69
6006,1715374722.914924,1.19,-1.3,0.11,328.92,2.87,-350.65
6035,1715374722.952622,-0.05,-1.34,0.01,328.92,2.87,-350.65
6037,1715374722.955198,-0.05,-1.34,0.01,176.7,13.31,-183.47
6065,1715374722.991607,-1.21,-1.8,-0.61,176.7,13.31,-183.47
6068,1715374722.995508,-1.21,-1.8,-0.61,-17.94,130.8,86.24
6095,1715374723.03142,-1.1,-1.8,-1.13,-13.98,-4.64,249.39
6124,1715374723.068958,-0.13,-1.94,-0.69,-13.98,-4.64,249.39
6126,1715374723.071527,-0.13,-1.94,-0.69,-60.3,-94.91,376.4
6154,1715374723.107596,0.35,-1.81,-0.8,-96.8,-95.83,437.44
6183,1715374723.145962,0.85,-2.07,-0.23,-122.5,-191.71,454.1
6213,1715374723.185205,1.33,-2.07,0.28,-122.5,-191.71,454.1
6215,1715374723.187765,1.33,-2.07,0.28,-5.31,-227.05,442.99
6255,1715374723.23953,1.98,-2.17,-0.32,5.86,-159.85,439.64
6274,1715374723.264292,3.6,-2.08,-1.08,-6.9,-171.81,471.92
6294,1715374723.290317,4.52,-0.97,-0.55,-6.9,-171.81,471.92
6309,1715374723.309959,4.52,-0.97,-0.55,-109.68,-101.01,323.12
6324,1715374723.32935,3.72,-1.07,1.2,-278.69,206.85,75.32
6354,1715374723.368255,2.93,-0.97,-0.15,-12.33,250.98,-89.72
6375,1715374723.395829,2.63,-1.0,-0.51,32.41,180.11,-216.19
6404,1715374723.433802,2.14,-0.9,-0.02,-4.64,169.43,-224.3
6435,1715374723.473973,1.89,-0.38,0.07,-4.64,169.43,-224.3
6437,1715374723.476559,1.89,-0.38,0.07,-37.54,203.8,-267.21
6465,1715374723.512597,1.57,-0.21,0.09,-37.54,203.8,-267.21
6468,1715374723.51646,1.57,-0.21,0.09,19.71,156.31,-350.89
6494,1715374723.550624,1.42,-0.39,-0.04,65.67,181.76,-383.0
6523,1715374723.589183,1.52,-0.47,0.04,105.53,128.6,-459.78
6553,1715374723.628835,1.75,-0.87,0.16,106.26,148.19,-508.06
6582,1715374723.666557,1.8,-1.04,0.1,110.9,188.11,-525.51
6612,1715374723.705501,0.33,-0.97,-0.3,179.69,68.18,-506.53
6641,1715374723.743341,-0.9,-0.74,0.17,179.69,68.18,-506.53
6642,1715374723.744654,-0.9,-0.74,0.17,151.25,-88.56,-363.34
6671,1715374723.782096,-1.56,-1.15,0.46,-18.55,47.91,-17.76
6701,1715374723.821034,-1.18,-1.77,-0.43,-43.15,53.96,367.13
6730,1715374723.85846,0.66,-2.28,-0.43,-82.46,-32.53,606.93
6761,1715374723.89882,2.09,-2.37,-0.08,-130.49,-26.31,681.52
6790,1715374723.93703,1.9,-2.02,-0.06,-195.56,-35.1,614.75
6819,1715374723.975049,1.9,-2.1,-0.23,-195.56,-35.1,614.75
6820,1715374723.976374,1.9,-2.1,-0.23,-92.29,-159.55,530.7
6849,1715374724.014354,2.03,-1.75,-0.36,-92.29,-159.55,530.7
6850,1715374724.015527,2.03,-1.75,-0.36,69.27,-259.28,468.75
6878,1715374724.052117,2.04,-1.75,-0.63,150.02,-296.75,469.24
6910,1715374724.093565,2.57,-1.71,-0.38,74.16,-213.62,414.98
6938,1715374724.129783,2.17,-1.09,0.52,-106.87,-0.24,255.8
6965,1715374724.167833,2.04,-1.63,0.59,-129.15,156.98,48.4
6995,1715374724.20696,2.24,-1.68,0.42,-116.09,257.14,-41.26
7025,1715374724.246031,2.09,-1.44,0.15,-116.09,257.14,-41.26
7027,1715374724.248657,2.09,-1.44,0.15,-116.76,349.12,-125.18
7054,1715374724.283714,1.46,-0.99,-0.46,-116.76,349.12,-125.18
7055,1715374724.284996,1.46,-0.99,-0.46,-31.19,288.94,-151.61
7084,1715374724.322427,1.34,-0.38,-0.15,-31.19,288.94,-151.61
7086,1715374724.325002,1.34,-0.38,-0.15,31.31,108.22,-202.51
7114,1715374724.361757,1.16,-0.16,0.06,31.31,108.22,-202.51
7116,1715374724.364412,1.16,-0.16,0.06,24.9,122.31,-246.46
7145,1715374724.402483,0.83,-0.1,-0.15,24.9,122.31,-246.46
7146,1715374724.403765,0.83,-0.1,-0.15,61.89,141.11,-279.85
7174,1715374724.440013,0.52,-0.27,-0.18,61.89,141.11,-279.85
7175,1715374724.441296,0.52,-0.27,-0.18,67.5,119.45,-301.51
7204,1715374724.478692,0.34,-0.36,-0.01,67.5,119.45,-301.51
7208,1715374724.483933,0.34,-0.36,-0.01,89.36,86.06,-297.97
7233,1715374724.51669,0.19,-0.39,0.05,89.36,86.06,-297.97
7239,1715374724.524394,0.19,-0.39,0.05,96.25,85.33,-288.7
7263,1715374724.555857,-0.24,-0.62,-0.32,96.07,61.1,-246.15
7299,1715374724.602445,-0.03,-0.85,-0.61,118.35,-253.72,-42.3
7316,1715374724.624571,1.77,-0.64,0.41,113.04,-490.11,100.1
7346,1715374724.663829,2.27,-0.21,1.47,145.69,-191.83,26.43
7375,1715374724.701227,1.25,-1.14,0.19,145.69,-191.83,26.43
7376,1715374724.702577,1.25,-1.14,0.19,-49.26,228.27,64.33
7405,1715374724.740163,1.03,-1.05,-0.13,3.48,104.8,174.68
7434,1715374724.77785,1.11,-0.77,-0.01,65.61,13.37,201.66
7464,1715374724.817362,0.97,-0.41,-0.12,65.61,13.37,201.66
7468,1715374724.822626,0.97,-0.41,-0.12,127.14,-8.18,177.67
7493,1715374724.854799,0.85,-0.23,-0.36,152.89,-28.63,154.54
7523,1715374724.893833,0.72,-0.02,-0.57,146.06,-47.49,130.49
7553,1715374724.93336,0.62,0.14,-0.59,30.76,13.67,93.63
7582,1715374724.970967,0.58,-0.24,-0.49,30.76,13.67,93.63
7583,1715374724.97226,0.58,-0.24,-0.49,-156.19,101.14,38.88
7612,1715374725.009937,0.63,-1.24,-0.37,-156.19,101.14,38.88
7615,1715374725.01382,0.63,-1.24,-0.37,-269.29,92.35,30.09
7642,1715374725.048847,0.95,-1.73,0.09,-304.75,58.29,103.82
