id,timestamp,acc_x,acc_y,acc_z,gyro_x,gyro_y,gyro_z
0,1715374111.714779,0.23,0.83,0.57,62.44,-19.17,10.99
9,1715374111.726857,0.34,0.87,0.77,62.44,-19.17,10.99
11,1715374111.72955,0.34,0.87,0.77,12.27,-11.84,14.65
40,1715374111.770499,0.39,0.79,0.65,-8.3,17.7,-15.75
66,1715374111.803761,0.99,0.08,1.69,-8.3,17.7,-15.75
67,1715374111.805035,0.99,0.08,1.69,18.37,15.38,-41.75
97,1715374111.843281,0.05,1.17,0.26,18.37,15.38,-41.75
100,1715374111.847102,0.05,1.17,0.26,87.4,130.86,-17.46
128,1715374111.882905,0.48,1.16,0.34,72.75,-81.67,-147.16
156,1715374111.918854,0.03,1.08,0.5,72.75,-81.67,-147.16
157,1715374111.920154,0.03,1.08,0.5,124.45,-160.77,41.69
186,1715374111.957646,0.16,0.83,0.08,124.45,-160.77,41.69
187,1715374111.958929,0.16,0.83,0.08,79.04,-166.26,15.38
216,1715374111.99704,0.55,1.16,0.77,79.04,-166.26,15.38
217,1715374111.998422,0.55,1.16,0.77,197.57,-124.21,69.58
246,1715374112.036178,0.15,0.9,0.58,197.57,-124.21,69.58
249,1715374112.040018,0.15,0.9,0.58,-66.47,-22.71,-47.61
276,1715374112.074777,0.47,1.02,-0.06,51.76,-95.58,-60.49
306,1715374112.113547,0.48,1.19,0.52,-29.11,-65.49,9.83
335,1715374112.151157,0.54,0.11,0.25,-25.27,25.7,-79.1
365,1715374112.190325,0.56,0.73,0.8,-85.82,-37.17,2.26
392,1715374112.228389,0.43,0.57,0.96,-54.14,102.66,-150.39
419,1715374112.267058,0.16,0.16,0.98,-54.14,102.66,-150.39
421,1715374112.26961,0.16,0.16,0.98,-127.08,-37.96,-155.64
449,1715374112.3053,0.06,0.27,1.18,-23.99,-74.28,-11.9
478,1715374112.343297,-0.13,0.47,1.27,-78.0,-26.31,18.49
508,1715374112.381991,-0.01,0.59,1.1,-21.97,34.97,18.68
537,1715374112.419424,-0.04,0.41,1.04,-21.97,34.97,18.68
539,1715374112.422013,-0.04,0.41,1.04,12.08,21.12,77.94
567,1715374112.458246,0.07,0.12,1.46,12.08,21.12,77.94
568,1715374112.459527,0.07,0.12,1.46,25.57,96.86,71.9
598,1715374112.49824,0.22,0.05,1.14,12.39,103.09,100.28
626,1715374112.534111,0.37,0.08,1.34,12.39,103.09,100.28
628,1715374112.536472,0.37,0.08,1.34,-57.74,61.89,128.42
648,1715374112.573613,0.46,0.39,1.38,-57.74,61.89,128.42
650,1715374112.576145,0.46,0.39,1.38,29.17,2.38,139.77
678,1715374112.612141,0.38,0.34,0.96,29.17,2.38,139.77
679,1715374112.613498,0.38,0.34,0.96,40.16,12.94,80.75
708,1715374112.65129,0.24,0.48,1.48,47.12,-6.23,106.69
742,1715374112.695338,-0.38,0.28,1.23,71.96,-32.65,96.07
768,1715374112.736721,0.31,0.69,0.31,99.98,-94.73,147.03
793,1715374112.773267,0.56,1.84,-0.37,174.44,-64.51,66.47
818,1715374112.805455,2.29,1.94,-2.74,174.01,119.81,50.6
846,1715374112.84247,1.99,0.91,-2.2,174.01,119.81,50.6
849,1715374112.846364,1.99,0.91,-2.2,20.51,-91.8,0.67
877,1715374112.882209,0.92,0.34,-0.39,20.51,-91.8,0.67
878,1715374112.883522,0.92,0.34,-0.39,-97.78,-62.99,-41.38
906,1715374112.919623,0.7,0.69,0.21,-115.72,-16.66,-52.86
935,1715374112.957584,0.76,0.89,0.56,-115.72,-16.66,-52.86
937,1715374112.960184,0.76,0.89,0.56,-37.78,-67.99,-62.56
959,1715374112.997055,0.41,0.69,0.61,-64.51,-10.07,-77.88
990,1715374113.036244,0.36,0.69,0.78,-72.88,-43.4,-59.33
1016,1715374113.075037,0.26,0.64,0.79,-11.11,19.04,-75.68
1045,1715374113.113183,0.39,0.68,0.43,-11.11,19.04,-75.68
1047,1715374113.115858,0.39,0.68,0.43,-24.84,-104.8,-7.81
1075,1715374113.152378,0.41,0.78,0.88,-24.84,-104.8,-7.81
1076,1715374113.153684,0.41,0.78,0.88,-40.41,29.79,-66.65
1103,1715374113.190768,0.25,0.55,0.48,6.47,-75.87,18.55
1132,1715374113.229027,0.57,0.83,1.11,-17.7,-63.05,-0.18
1161,1715374113.267027,0.42,0.6,0.7,-8.36,-51.45,-3.42
1190,1715374113.30518,0.52,0.76,0.79,-26.43,-46.2,18.49
1220,1715374113.345072,0.53,0.66,0.89,-31.13,-4.39,-27.65
1249,1715374113.383368,0.4,0.55,0.64,-31.13,-2.01,-12.57
1278,1715374113.42082,0.49,0.55,0.81,-31.13,-2.01,-12.57
1280,1715374113.423395,0.49,0.55,0.81,-28.75,-40.28,2.99
1309,1715374113.461549,0.43,0.56,0.93,-24.11,-5.86,-3.66
1330,1715374113.488897,0.47,0.52,0.96,-24.11,-5.86,-3.66
1331,1715374113.490218,0.47,0.52,0.96,-23.13,0.06,-2.87
1361,1715374113.529188,0.49,0.52,1.12,-9.7,6.59,-6.23
1390,1715374113.566839,0.43,0.51,1.19,-9.7,6.59,-6.23
1392,1715374113.569446,0.43,0.51,1.19,18.07,33.63,-1.83
1411,1715374113.595827,0.5,0.47,1.12,18.07,33.63,-1.83
1412,1715374113.597153,0.5,0.47,1.12,41.93,13.49,21.24
1442,1715374113.63605,0.56,0.4,1.3,48.71,60.85,11.35
1470,1715374113.672897,0.52,0.24,0.96,48.71,60.85,11.35
1472,1715374113.675508,0.52,0.24,0.96,41.56,64.51,16.48
1500,1715374113.712827,0.58,0.26,1.15,41.56,64.51,16.48
1502,1715374113.715456,0.58,0.26,1.15,39.18,16.24,55.3
1528,1715374113.753297,0.6,0.26,0.9,76.84,0.31,40.41
1558,1715374113.792961,0.55,0.29,0.86,-1.46,36.56,37.35
1586,1715374113.829588,0.46,0.35,1.0,61.34,-76.97,23.38
1615,1715374113.868127,0.16,0.18,0.13,-30.88,29.36,-5.74
1644,1715374113.905901,0.28,1.82,0.33,-30.88,29.36,-5.74
1645,1715374113.907224,0.28,1.82,0.33,19.59,-116.15,8.91
1684,1715374113.957851,0.37,2.71,-0.67,66.28,45.47,3.66
1703,1715374113.982921,1.41,1.55,-2.17,66.28,45.47,3.66
1704,1715374113.984255,1.41,1.55,-2.17,200.99,77.27,20.63
1754,1715374114.049133,1.06,0.61,-1.46,24.48,-36.25,20.08
1762,1715374114.059526,0.69,0.68,-0.16,-41.26,-24.78,5.31
1791,1715374114.098516,0.56,0.78,0.06,-41.26,-24.78,5.31
1792,1715374114.099807,0.56,0.78,0.06,-44.31,20.87,-26.25
1822,1715374114.138476,0.61,0.9,0.44,0.92,-62.01,-14.83
1846,1715374114.175768,0.53,0.89,0.34,4.03,58.65,-66.22
1876,1715374114.214364,0.33,0.82,0.39,4.03,58.65,-66.22
1877,1715374114.215657,0.33,0.82,0.39,-16.97,-61.16,-5.19
1905,1715374114.251933,0.39,0.89,0.62,-16.97,-61.16,-5.19
1908,1715374114.255971,0.39,0.89,0.62,-5.0,36.19,-33.02
1934,1715374114.294656,0.38,0.72,0.21,-6.16,-51.09,8.91
1962,1715374114.330742,0.56,0.84,0.65,-22.77,-1.77,-5.49
1991,1715374114.368714,0.55,0.7,0.43,-21.61,-27.59,1.16
2023,1715374114.409693,0.63,0.76,0.72,-42.24,-14.65,-10.13
2051,1715374114.446321,0.5,0.59,0.72,-28.75,-11.17,-23.62
2081,1715374114.485388,0.56,0.66,0.69,-28.75,-11.17,-23.62
2082,1715374114.486668,0.56,0.66,0.69,-42.24,-26.43,-0.43
2111,1715374114.524163,0.48,0.6,0.77,-42.24,-26.43,-0.43
2114,1715374114.528152,0.48,0.6,0.77,-21.42,4.94,-24.35
2141,1715374114.563433,0.57,0.69,0.71,-21.42,4.94,-24.35
2142,1715374114.564853,0.57,0.69,0.71,-2.87,-46.81,28.32
2167,1715374114.601719,0.75,0.77,0.73,-2.87,-46.81,28.32
2168,1715374114.603,0.75,0.77,0.73,-13.85,-31.43,-7.51
2197,1715374114.640607,0.54,0.7,0.74,-31.01,10.07,-45.23
2227,1715374114.679455,0.51,0.55,0.83,-15.5,-19.35,-26.73
2257,1715374114.71822,0.49,0.64,0.99,-30.94,18.25,-50.35
2286,1715374114.756139,0.32,0.33,0.93,-2.93,38.88,-37.9
2315,1715374114.793432,0.19,0.4,0.86,-2.93,38.88,-37.9
2319,1715374114.798584,0.19,0.4,0.86,22.46,15.56,4.15
2345,1715374114.832145,0.59,0.53,1.24,22.46,15.56,4.15
2346,1715374114.833437,0.59,0.53,1.24,46.45,21.55,53.22
2376,1715374114.872062,0.6,0.57,1.05,46.45,21.55,53.22
2377,1715374114.873252,0.6,0.57,1.05,67.32,35.89,19.29
2405,1715374114.909494,0.6,0.45,1.5,67.32,35.89,19.29
2406,1715374114.910849,0.6,0.45,1.5,49.5,29.72,18.86
2435,1715374114.948414,0.53,0.4,0.95,49.5,29.72,18.86
2437,1715374114.951091,0.53,0.4,0.95,63.96,20.57,10.19
2464,1715374114.98627,0.4,0.32,0.81,55.11,2.56,44.92
2493,1715374115.023873,0.7,0.48,0.86,55.11,2.56,44.92
2495,1715374115.026454,0.7,0.48,0.86,33.57,32.9,19.1
2523,1715374115.062769,0.21,0.38,0.51,42.24,15.26,11.11
2553,1715374115.10133,0.47,0.73,0.45,42.24,15.26,11.11
2555,1715374115.10391,0.47,0.73,0.45,69.03,-39.92,42.85
2584,1715374115.141395,0.64,1.02,-0.37,16.05,-32.17,3.42
2613,1715374115.179277,0.43,2.55,-0.96,16.05,-32.17,3.42
2614,1715374115.180806,0.43,2.55,-0.96,-22.64,75.74,6.16
2651,1715374115.232642,1.14,2.14,-1.98,94.73,30.27,19.47
2671,1715374115.258248,0.87,1.0,-1.02,30.58,-33.2,18.31
2701,1715374115.296737,0.43,0.7,-0.24,-5.68,-25.45,-0.49
2730,1715374115.333786,0.53,0.78,0.25,-38.88,25.45,-5.62
2759,1715374115.371574,0.56,0.88,0.3,-38.88,25.45,-5.62
2760,1715374115.37289,0.56,0.88,0.3,14.28,-48.1,-5.98
2796,1715374115.419752,0.49,0.93,0.33,-5.07,-17.94,-0.61
2812,1715374115.440422,0.46,0.82,0.41,-56.64,44.92,-38.21
2841,1715374115.47863,0.34,0.86,0.56,25.57,-65.12,4.27
2870,1715374115.516243,0.52,0.81,0.44,25.57,-65.12,4.27
2871,1715374115.517537,0.52,0.81,0.44,-47.67,-16.66,1.4
2901,1715374115.555937,0.58,0.72,0.61,0.37,-37.66,-2.5
2931,1715374115.594622,0.48,0.75,0.51,-30.15,-7.02,-18.74
2958,1715374115.6329,0.61,0.63,0.65,-30.15,-7.02,-18.74
2959,1715374115.634177,0.61,0.63,0.65,-47.61,-39.49,-5.31
2988,1715374115.6716,0.58,0.69,0.76,-16.54,-23.56,-13.85
3017,1715374115.711132,0.46,0.6,0.4,-44.8,-26.86,10.5
3043,1715374115.749673,0.88,0.82,0.77,5.43,-57.01,23.68
3072,1715374115.788648,0.6,0.59,0.53,-51.64,-16.24,-20.26
3099,1715374115.826822,0.58,0.48,0.82,-51.64,-16.24,-20.26
3100,1715374115.828075,0.58,0.48,0.82,-31.98,-36.19,-3.78
3128,1715374115.865017,0.58,0.7,0.93,-32.96,-7.93,-35.16
3156,1715374115.904663,0.48,0.49,0.91,-42.54,28.69,-49.01
3185,1715374115.94209,0.33,0.49,0.85,-7.57,32.65,-46.39
3215,1715374115.980896,0.39,0.55,1.02,9.89,23.01,23.44
3245,1715374116.01941,0.5,0.39,1.0,9.89,23.01,23.44
3247,1715374116.022096,0.5,0.39,1.0,58.47,30.7,19.17
3276,1715374116.060007,0.76,0.68,1.2,43.76,-2.69,62.99
3306,1715374116.098602,0.65,0.57,0.91,24.48,64.82,-52.49
3335,1715374116.136104,0.38,0.35,1.04,24.48,64.82,-52.49
3337,1715374116.138671,0.38,0.35,1.04,16.78,32.29,44.43
3364,1715374116.173553,0.59,0.48,0.74,16.78,32.29,44.43
3366,1715374116.176326,0.59,0.48,0.74,26.49,2.38,51.09
3395,1715374116.214244,0.4,0.11,0.7,3.05,42.18,101.2
3425,1715374116.252943,0.92,0.4,0.52,0.92,-38.09,114.2
3453,1715374116.289488,0.73,0.56,0.63,0.92,-38.09,114.2
3455,1715374116.292118,0.73,0.56,0.63,-53.65,-6.47,65.49
3484,1715374116.329778,1.04,1.09,0.2,-75.13,-8.24,4.94
3505,1715374116.35716,0.41,2.22,-0.1,-28.81,-92.96,-18.98
3535,1715374116.39673,0.65,2.64,-0.42,-28.81,-92.96,-18.98
3538,1715374116.400617,0.65,2.64,-0.42,109.62,74.28,-16.11
3564,1715374116.434457,0.9,0.96,-1.23,109.62,74.28,-16.11
3566,1715374116.437039,0.9,0.96,-1.23,156.43,-39.79,-6.71
3588,1715374116.465562,0.78,0.54,-0.69,43.88,-1.77,0.73
3633,1715374116.523569,0.61,0.68,-0.23,17.27,-33.02,-5.13
3647,1715374116.541212,0.76,0.79,0.18,17.27,-33.02,-5.13
3652,1715374116.547521,0.76,0.79,0.18,-16.11,0.18,-30.82
3694,1715374116.602137,0.72,0.85,0.28,-33.39,30.94,-52.8
3707,1715374116.618725,0.6,0.89,0.33,14.04,-25.09,-56.46
3738,1715374116.658657,0.46,0.84,0.35,11.05,7.93,-50.23
3765,1715374116.695262,0.39,0.78,0.34,11.05,7.93,-50.23
3766,1715374116.69655,0.39,0.78,0.34,-10.93,20.2,-52.19
3796,1715374116.735502,0.34,0.79,0.46,-10.93,20.2,-52.19
3797,1715374116.736793,0.34,0.79,0.46,44.92,-31.92,-27.95
3823,1715374116.771127,0.43,0.78,0.39,-8.06,-30.4,-12.63
3852,1715374116.808684,0.59,0.78,0.69,-8.06,-30.4,-12.63
3854,1715374116.811264,0.59,0.78,0.69,6.84,-24.78,-17.33
3883,1715374116.848494,0.49,0.68,0.41,6.84,-24.78,-17.33
3885,1715374116.851089,0.49,0.68,0.41,-2.2,-16.42,-31.86
3914,1715374116.888511,0.57,0.69,0.68,-20.45,-31.92,-4.27
3943,1715374116.925945,0.64,0.82,0.56,-8.79,-17.27,-15.63
3973,1715374116.964821,0.57,0.61,0.58,-38.27,-29.85,-16.6
4002,1715374117.002742,0.6,0.73,0.7,-38.27,-29.85,-16.6
4004,1715374117.005325,0.6,0.73,0.7,1.04,-45.78,9.77
4031,1715374117.040163,0.6,0.63,0.78,1.04,-45.78,9.77
4033,1715374117.042748,0.6,0.63,0.78,-42.79,-26.67,-19.35
4062,1715374117.080204,0.47,0.5,0.81,-42.79,-26.67,-19.35
4063,1715374117.081508,0.47,0.5,0.81,-43.09,-27.34,-16.78
4092,1715374117.118758,0.55,0.55,0.82,-43.09,-27.34,-16.78
4094,1715374117.121339,0.55,0.55,0.82,-40.59,-16.48,2.69
4121,1715374117.156491,0.61,0.65,1.06,-40.59,-16.48,2.69
4123,1715374117.159074,0.61,0.65,1.06,-41.87,16.36,-34.61
4152,1715374117.196836,0.45,0.52,0.71,-23.93,45.23,-29.79
4180,1715374117.232967,0.51,0.57,1.0,-23.93,45.23,-29.79
4182,1715374117.235553,0.51,0.57,1.0,-4.27,37.17,-7.87
4210,1715374117.271833,0.56,0.38,1.17,-4.27,37.17,-7.87
4212,1715374117.274515,0.56,0.38,1.17,11.9,43.52,8.73
4240,1715374117.310909,0.52,0.33,1.11,9.4,53.41,5.74
4269,1715374117.34873,0.48,0.37,0.93,9.4,53.41,5.74
4271,1715374117.351215,0.48,0.37,0.93,0.85,54.99,-14.34
4299,1715374117.387406,0.52,0.5,1.07,0.85,54.99,-14.34
4300,1715374117.388742,0.52,0.5,1.07,27.4,2.81,55.85
4329,1715374117.426337,0.45,0.44,1.13,0.18,52.31,19.65
4360,1715374117.466182,0.3,0.26,0.76,-1.59,32.96,35.64
4381,1715374117.493741,0.58,0.45,0.75,-1.59,32.96,35.64
4383,1715374117.496323,0.58,0.45,0.75,41.81,-82.7,96.37
4410,1715374117.531776,0.86,0.93,0.7,41.81,-82.7,96.37
4411,1715374117.533085,0.86,0.93,0.7,-29.11,9.58,27.71
4441,1715374117.57207,-0.28,2.24,0.1,-29.11,9.58,27.71
4442,1715374117.573356,-0.28,2.24,0.1,-30.88,-104.43,19.04
4469,1715374117.608041,0.24,3.0,-0.09,-30.88,-104.43,19.04
4471,1715374117.610619,0.24,3.0,-0.09,108.7,22.77,30.52
4499,1715374117.648175,0.68,0.91,-1.84,108.7,22.77,30.52
4500,1715374117.649522,0.68,0.91,-1.84,177.86,-1.83,0.61
4528,1715374117.685701,0.52,0.34,-0.87,24.05,2.93,21.85
4558,1715374117.724438,0.55,0.64,-0.11,-24.05,30.52,13.43
4615,1715374117.798018,0.8,0.97,0.1,-6.96,21.12,-15.93
4623,1715374117.808287,0.71,1.1,0.19,8.24,-3.91,-36.01
4648,1715374117.840521,0.61,1.11,0.33,52.19,-14.34,-26.79
4696,1715374117.902571,0.41,0.87,0.13,-7.14,13.37,-53.65
4708,1715374117.918149,0.33,0.89,0.62,9.58,-21.97,1.83
4737,1715374117.955659,0.47,0.87,0.53,41.26,-70.01,-11.47
4766,1715374117.993147,0.39,0.71,0.46,-48.77,26.25,-33.69
4796,1715374118.032425,0.56,0.83,0.78,39.98,-78.86,11.78
4825,1715374118.070207,0.35,0.77,0.84,-16.78,19.29,-59.51
4857,1715374118.111583,0.51,0.59,0.57,21.55,-65.49,-1.65
4886,1715374118.148819,0.43,0.71,0.63,-1.4,-48.58,-9.34
4915,1715374118.186357,0.63,0.79,0.62,-1.4,-48.58,-9.34
4918,1715374118.1902,0.63,0.79,0.62,-16.11,-48.95,21.0
4945,1715374118.224722,0.67,0.87,0.53,-1.95,-47.36,9.16
4973,1715374118.263742,0.55,0.65,0.49,-50.35,1.04,-27.83
5002,1715374118.301902,0.48,0.66,0.67,-50.35,1.04,-27.83
5003,1715374118.303241,0.48,0.66,0.67,-31.43,-23.07,13.18
5032,1715374118.340916,0.54,0.73,0.68,-31.43,-23.07,13.18
5034,1715374118.343519,0.54,0.73,0.68,-60.55,13.79,-7.26
5064,1715374118.382507,0.4,0.6,0.95,-42.6,21.06,-16.42
5085,1715374118.409592,0.32,0.45,0.75,-42.6,21.06,-16.42
5087,1715374118.41245,0.32,0.45,0.75,-17.94,47.91,-19.17
5115,1715374118.448661,0.53,0.58,1.05,14.22,-0.67,48.28
5146,1715374118.488497,0.51,0.3,1.13,38.76,39.31,21.0
5189,1715374118.544349,0.7,0.38,1.29,31.43,-14.4,37.9
5204,1715374118.563692,0.61,0.22,1.0,38.51,84.23,-18.19
5234,1715374118.602556,0.49,0.29,0.91,36.74,51.57,56.34
5264,1715374118.641475,0.59,0.6,0.92,20.63,60.24,45.84
5293,1715374118.67938,0.63,0.6,0.55,20.63,60.24,45.84
5295,1715374118.682,0.63,0.6,0.55,0.31,86.79,31.86
5323,1715374118.718287,0.74,0.96,0.42,0.43,24.29,32.29
5352,1715374118.755673,0.62,1.2,-0.12,-47.42,159.24,-36.74
5383,1715374118.795717,0.31,2.53,-0.27,3.72,60.42,30.03
5412,1715374118.833439,1.28,1.95,-0.98,3.72,60.42,30.03
5413,1715374118.834736,1.28,1.95,-0.98,45.41,73.67,45.78
5442,1715374118.872252,1.01,0.63,-0.27,35.58,-24.11,-4.94
5472,1715374118.91133,0.26,0.38,0.24,35.58,-24.11,-4.94
5474,1715374118.913917,0.26,0.38,0.24,-34.79,-40.53,-9.83
5502,1715374118.949802,0.54,0.83,0.62,-20.32,-54.38,-14.95
5538,1715374118.996353,0.28,0.91,0.68,-21.18,-8.0,-44.37
5561,1715374119.026246,0.22,1.09,0.49,-21.18,-8.0,-44.37
5563,1715374119.028912,0.22,1.09,0.49,21.3,-48.71,-7.87
5596,1715374119.071686,0.42,1.31,0.38,44.56,-52.25,-0.67
5621,1715374119.104208,0.33,1.06,0.31,44.56,-52.25,-0.67
5622,1715374119.10549,0.33,1.06,0.31,17.4,-9.16,-12.39
5655,1715374119.148443,0.44,1.09,0.41,59.88,-53.71,4.21
5679,1715374119.18138,0.43,0.95,0.33,59.88,-53.71,4.21
5681,1715374119.183985,0.43,0.95,0.33,46.63,-21.36,-5.92
5709,1715374119.220143,0.47,0.82,0.2,22.52,-47.61,-2.2
5739,1715374119.259024,0.61,0.83,0.46,42.3,-56.27,-7.69
5767,1715374119.295469,0.58,0.59,0.29,42.3,-56.27,-7.69
5769,1715374119.298081,0.58,0.59,0.29,-8.48,-55.36,-26.37
5798,1715374119.335755,0.65,0.6,0.73,-8.48,-55.36,-26.37
5799,1715374119.337044,0.65,0.6,0.73,-12.7,-55.3,-32.47
5828,1715374119.374788,0.42,0.48,0.63,-43.58,-27.34,-30.64
5859,1715374119.414691,0.63,0.53,0.97,-67.93,-53.1,-17.64
5888,1715374119.452811,0.54,0.47,0.87,-66.89,-46.2,-20.39
5916,1715374119.488931,0.45,0.5,0.92,-80.93,-0.92,-27.04
5947,1715374119.529069,0.41,0.63,1.25,-54.69,-3.23,-44.01
5975,1715374119.56554,0.25,0.66,1.09,-28.69,49.38,-47.49
6004,1715374119.604399,0.17,0.4,0.94,17.27,5.62,31.07
6033,1715374119.64238,0.54,0.68,1.39,17.27,5.62,31.07
6035,1715374119.64498,0.54,0.68,1.39,60.67,17.21,53.83
6063,1715374119.680843,0.36,0.26,1.13,59.88,42.85,36.5
6093,1715374119.71911,0.67,0.4,1.26,59.94,53.83,43.88
6124,1715374119.758612,0.4,0.24,0.87,59.94,53.83,43.88
6126,1715374119.761199,0.4,0.24,0.87,28.5,51.7,29.24
6154,1715374119.797588,0.61,0.58,1.03,23.5,21.12,67.87
6184,1715374119.836316,0.38,0.54,0.9,-5.0,62.74,10.5
6213,1715374119.873915,0.3,0.62,0.44,-4.33,38.94,63.72
6241,1715374119.910246,0.83,0.86,-0.29,-16.91,91.19,29.85
6272,1715374119.950258,0.34,2.36,-0.08,-49.13,72.51,5.98
6303,1715374119.990521,1.19,2.2,-1.15,100.04,41.2,50.48
6332,1715374120.028196,1.54,1.11,-0.79,42.36,-28.93,6.53
6361,1715374120.065783,0.47,0.39,0.15,42.36,-28.93,6.53
6363,1715374120.068225,0.47,0.39,0.15,-34.73,-58.17,-7.57
6392,1715374120.10578,0.25,0.67,0.53,-51.51,-6.16,-25.94
6423,1715374120.145158,0.44,0.95,0.53,-16.78,-15.08,-26.06
6453,1715374120.184233,0.54,1.16,0.61,5.07,-17.46,-30.7
6483,1715374120.223069,0.39,1.02,0.35,5.07,-17.46,-30.7
6485,1715374120.225706,0.39,1.02,0.35,16.72,-41.75,-28.38
6507,1715374120.25434,0.48,1.06,0.52,17.46,-52.73,-19.78
6535,1715374120.290552,0.36,0.94,0.53,-0.43,13.73,-50.35
6564,1715374120.327756,0.3,0.84,0.46,-0.43,13.73,-50.35
6566,1715374120.330354,0.3,0.84,0.46,41.26,-82.64,1.22
6600,1715374120.374502,0.41,0.85,0.57,-5.43,-34.06,-11.17
6624,1715374120.405884,0.44,0.72,0.57,-5.43,-34.06,-11.17
6627,1715374120.409793,0.44,0.72,0.57,10.99,-61.95,3.78
6659,1715374120.451497,0.48,0.71,0.81,-20.02,-30.76,-27.83
6684,1715374120.484207,0.38,0.48,0.64,-33.75,-10.86,-31.86
6713,1715374120.522437,0.53,0.62,0.83,-33.75,-10.86,-31.86
6714,1715374120.523748,0.53,0.62,0.83,-15.81,-55.91,-0.61
6742,1715374120.561885,0.38,0.31,0.71,-15.81,-55.91,-0.61
6743,1715374120.563178,0.38,0.31,0.71,-50.42,-0.12,-38.09
6771,1715374120.599607,0.47,0.48,0.75,-50.42,-0.12,-38.09
6772,1715374120.600899,0.47,0.48,0.75,-19.9,-44.98,25.82
6801,1715374120.638378,0.6,0.56,1.04,-19.9,-44.98,25.82
6802,1715374120.639653,0.6,0.56,1.04,-48.4,-40.89,-9.03
6831,1715374120.677339,0.38,0.56,1.15,-39.37,19.17,-42.18
6860,1715374120.714565,0.39,0.66,1.03,-39.37,19.17,-42.18
6862,1715374120.71714,0.39,0.66,1.03,-10.01,19.59,-15.26
6890,1715374120.753455,0.38,0.64,1.16,26.06,37.78,-19.29
6921,1715374120.794027,0.35,0.43,1.16,53.65,34.0,13.0
6949,1715374120.830258,0.39,0.4,1.37,73.85,55.3,24.29
6978,1715374120.867719,0.38,0.03,1.45,73.85,55.3,24.29
6980,1715374120.870516,0.38,0.03,1.45,38.21,67.14,4.39
7009,1715374120.907907,0.47,0.13,1.13,95.83,-6.71,85.02
7039,1715374120.946689,0.48,0.26,1.12,23.13,95.03,13.92
7067,1715374120.983205,0.18,0.33,0.76,23.13,95.03,13.92
7068,1715374120.984489,0.18,0.33,0.76,54.69,-23.07,72.88
7099,1715374121.024357,0.38,0.82,0.93,-9.03,87.77,63.9
7128,1715374121.061947,0.56,1.82,-0.1,53.1,-0.55,76.78
7157,1715374121.099951,1.95,2.11,-4.13,131.47,233.28,-5.49
7187,1715374121.138778,1.85,1.2,-2.35,-68.73,-160.46,50.05
7216,1715374121.176299,0.42,0.36,1.35,-137.51,-76.66,9.46
7246,1715374121.214953,0.14,0.45,1.31,-89.78,40.1,-19.04
7277,1715374121.255402,0.36,0.67,1.03,-21.67,43.4,-36.19
7306,1715374121.292687,0.42,0.62,1.0,-9.83,-14.59,-27.34
7336,1715374121.33176,0.4,0.66,0.84,-6.96,28.38,-48.71
7366,1715374121.370578,0.36,0.64,0.5,-12.15,-8.48,-15.44
7395,1715374121.407929,0.49,1.01,0.72,-12.15,-8.48,-15.44
7397,1715374121.410514,0.49,1.01,0.72,-13.06,-23.07,-1.1
7425,1715374121.44703,0.58,1.23,0.4,-13.06,-23.07,-1.1
7426,1715374121.448345,0.58,1.23,0.4,24.11,1.65,-15.2
7455,1715374121.486083,0.62,1.33,0.32,45.17,-73.61,6.53
7485,1715374121.525167,0.52,1.09,0.2,23.56,-41.5,-10.44
7515,1715374121.563944,0.47,0.94,0.32,30.33,-47.0,-10.38
7549,1715374121.608098,0.45,0.82,0.38,-3.66,-24.78,-17.46
7574,1715374121.640262,0.52,0.8,0.45,-3.66,-24.78,-17.46
7575,1715374121.641566,0.52,0.8,0.45,11.66,-79.1,-4.03
7603,1715374121.677932,0.51,0.72,0.66,11.66,-79.1,-4.03
7605,1715374121.680563,0.51,0.72,0.66,-6.23,-20.14,-29.79
