id,timestamp,acc_x,acc_y,acc_z,gyro_x,gyro_y,gyro_z
0,1715373847.848423,-0.25,-0.35,0.97,13.67,-14.04,-20.32
8,1715373847.859403,-0.15,-0.2,1.02,9.09,-12.57,-14.28
37,1715373847.898217,-0.18,-0.3,1.24,17.88,1.46,-27.4
67,1715373847.937166,-0.18,-0.52,1.23,67.14,33.57,-5.19
90,1715373847.967143,-0.09,-0.18,1.75,67.14,33.57,-5.19
92,1715373847.969806,-0.09,-0.18,1.75,34.67,107.36,26.18
120,1715373848.007355,-0.75,-0.4,0.98,34.67,107.36,26.18
121,1715373848.008672,-0.75,-0.4,0.98,90.03,342.35,36.56
149,1715373848.045757,-0.71,-0.29,1.72,90.03,342.35,36.56
151,1715373848.048188,-0.71,-0.29,1.72,193.3,173.03,111.94
177,1715373848.083718,-0.79,-0.52,1.63,124.21,356.57,165.59
207,1715373848.123729,-1.51,0.25,0.54,81.85,285.4,282.29
235,1715373848.160357,-1.11,0.17,0.94,81.85,285.4,282.29
236,1715373848.161674,-1.11,0.17,0.94,112.73,190.37,298.4
263,1715373848.199404,-1.13,0.02,0.47,58.04,284.55,297.49
289,1715373848.237452,-0.61,0.41,0.11,58.04,284.55,297.49
291,1715373848.240113,-0.61,0.41,0.11,54.32,161.38,370.18
318,1715373848.276028,-0.33,0.42,0.2,62.13,118.84,326.11
346,1715373848.314455,-0.19,0.24,-0.11,38.02,126.16,308.72
375,1715373848.352732,0.2,0.61,0.03,38.02,126.16,308.72
376,1715373848.35405,0.2,0.61,0.03,22.34,89.48,297.79
405,1715373848.392115,0.06,0.29,-0.09,22.34,89.48,297.79
407,1715373848.394821,0.06,0.29,-0.09,0.18,117.43,284.61
433,1715373848.430379,0.41,0.52,0.13,-37.66,71.84,284.85
456,1715373848.467553,0.53,0.5,0.24,1.65,94.12,248.29
484,1715373848.505551,0.72,0.25,-0.07,1.65,94.12,248.29
486,1715373848.508267,0.72,0.25,-0.07,15.14,107.85,226.07
513,1715373848.543685,1.08,0.33,0.08,-6.77,77.58,185.06
542,1715373848.583247,0.91,0.18,0.22,-11.78,73.61,158.14
571,1715373848.62265,1.11,0.33,0.19,-16.54,65.0,141.91
600,1715373848.660879,1.03,0.26,0.23,-22.71,41.5,100.83
631,1715373848.701212,1.05,0.26,0.31,-22.77,41.93,100.77
658,1715373848.737472,1.42,0.04,0.41,0.79,21.06,44.74
688,1715373848.777252,1.71,-0.12,0.44,2.81,4.09,-7.63
717,1715373848.815643,1.76,-0.03,0.55,50.72,-8.36,-122.56
745,1715373848.852924,1.23,-0.1,0.73,50.72,-8.36,-122.56
746,1715373848.854295,1.23,-0.1,0.73,84.96,-30.64,-187.56
774,1715373848.892497,1.22,0.34,0.14,79.53,-43.15,-213.68
807,1715373848.936382,0.87,0.31,0.14,58.9,-104.8,-295.53
829,1715373848.968439,0.6,0.38,0.06,58.9,-104.8,-295.53
851,1715373848.998341,0.6,0.38,0.06,18.68,-108.15,-268.07
860,1715373849.011566,0.5,0.58,0.01,15.5,-127.69,-322.33
885,1715373849.047138,-0.06,0.32,0.25,-14.59,-122.62,-300.66
915,1715373849.088528,-0.06,0.78,0.03,18.68,-58.72,-268.13
940,1715373849.122852,-0.23,0.42,0.15,2.87,-100.1,-312.68
968,1715373849.160071,-0.67,0.46,-0.01,2.87,-100.1,-312.68
969,1715373849.161438,-0.67,0.46,-0.01,9.22,8.73,-217.29
997,1715373849.199368,-0.3,0.65,0.09,9.22,8.73,-217.29
998,1715373849.200696,-0.3,0.65,0.09,-21.06,-209.72,-208.31
1025,1715373849.237034,-1.04,0.2,0.14,-21.06,-209.72,-208.31
1026,1715373849.238691,-1.04,0.2,0.14,-10.07,69.7,-235.41
1055,1715373849.277496,-0.52,0.56,-0.07,-3.6,-209.78,-144.04
1083,1715373849.3152,-1.06,0.14,0.31,-18.49,43.82,-252.75
1111,1715373849.353612,-0.98,0.19,-0.04,-10.25,-128.42,-134.16
1136,1715373849.391125,-0.89,0.23,0.54,-10.25,-128.42,-134.16
1137,1715373849.392464,-0.89,0.23,0.54,-36.93,21.36,-209.11
1164,1715373849.430799,-1.4,-0.07,0.06,-19.23,-14.1,-158.94
1192,1715373849.469309,-0.88,0.16,0.75,-5.68,-136.96,-120.48
1219,1715373849.508218,-1.48,-0.26,0.31,-5.68,-136.96,-120.48
1221,1715373849.510891,-1.48,-0.26,0.31,-32.41,48.58,-187.5
1248,1715373849.54797,-1.03,-0.01,0.57,7.51,-108.83,-87.28
1276,1715373849.586731,-0.95,-0.09,0.76,-6.16,-8.18,-166.63
1303,1715373849.624754,-2.02,-0.66,0.54,17.15,-16.6,-104.61
1326,1715373849.66286,-1.26,-0.32,0.67,17.15,-16.6,-104.61
1328,1715373849.665757,-1.26,-0.32,0.67,14.34,5.37,18.37
1355,1715373849.703995,-1.54,-0.53,0.5,10.93,64.27,31.98
1382,1715373849.740527,-1.57,-0.48,0.54,17.94,50.9,173.22
1409,1715373849.778093,-1.3,-0.19,0.5,17.94,50.9,173.22
1410,1715373849.779557,-1.3,-0.19,0.5,16.17,34.18,198.49
1439,1715373849.818764,-1.4,-0.18,0.51,14.53,52.06,199.28
1466,1715373849.857122,-1.29,-0.08,0.38,26.12,31.01,250.24
1493,1715373849.895334,-1.03,0.04,0.42,29.05,36.13,255.0
1519,1715373849.933384,-0.96,0.04,0.17,21.36,69.58,269.35
1546,1715373849.971872,-0.63,0.24,0.31,12.33,72.08,300.84
1574,1715373850.011233,-0.5,0.31,0.1,11.78,146.55,286.8
1601,1715373850.048763,-0.28,0.41,-0.03,-11.6,66.96,299.8
1628,1715373850.085781,-0.07,0.52,0.14,-11.6,66.96,299.8
1629,1715373850.087202,-0.07,0.52,0.14,-16.6,94.36,286.19
1656,1715373850.12576,0.14,0.58,-0.03,-19.04,55.79,258.48
1685,1715373850.164665,0.37,0.65,0.16,-26.55,71.9,255.31
1711,1715373850.204089,0.35,0.64,-0.06,-26.55,71.9,255.31
1716,1715373850.210697,0.35,0.64,-0.06,-14.65,79.71,210.75
1762,1715373850.274908,0.38,0.56,0.05,-45.23,70.01,219.3
1771,1715373850.290868,0.77,0.51,0.45,-42.6,58.47,213.93
1793,1715373850.32061,0.9,0.28,0.52,-36.8,63.48,211.24
1831,1715373850.371007,1.12,0.25,0.42,-17.82,69.15,187.74
1850,1715373850.39633,0.89,0.15,0.41,-17.82,69.15,187.74
1856,1715373850.404427,0.89,0.15,0.41,-10.86,67.81,163.64
1871,1715373850.425428,0.83,0.15,0.31,-27.53,66.35,183.11
1896,1715373850.463113,1.16,0.3,0.52,-54.93,45.78,169.86
1922,1715373850.503176,1.41,0.17,0.57,-54.93,45.78,169.86
1924,1715373850.505894,1.41,0.17,0.57,-35.83,14.65,94.97
1943,1715373850.532206,1.3,-0.08,0.6,-41.08,-17.33,36.62
1971,1715373850.570326,1.46,-0.03,0.59,-41.08,-17.33,36.62
1972,1715373850.571646,1.46,-0.03,0.59,-4.09,-7.57,-24.41
2000,1715373850.609249,1.33,-0.04,0.58,-4.09,-7.57,-24.41
2001,1715373850.610572,1.33,-0.04,0.58,26.25,-30.03,-105.22
2029,1715373850.648733,1.1,-0.11,0.46,36.07,-26.49,-139.47
2056,1715373850.684952,1.41,0.2,0.55,36.07,-26.49,-139.47
2057,1715373850.686136,1.41,0.2,0.55,42.79,-53.1,-178.96
2088,1715373850.727446,1.14,-0.04,0.44,57.56,-60.0,-270.45
2115,1715373850.763958,1.06,0.29,0.45,35.16,-88.68,-284.24
2143,1715373850.801293,0.85,0.36,0.33,57.31,-106.93,-371.7
2172,1715373850.840045,-0.0,0.21,0.39,57.31,-106.93,-371.7
2174,1715373850.842736,-0.0,0.21,0.39,37.05,-80.51,-340.21
2203,1715373850.881001,0.02,0.49,0.13,54.87,-65.61,-331.79
2231,1715373850.918122,-0.39,0.45,0.27,27.77,-78.19,-292.85
2260,1715373850.956032,-0.5,0.58,-0.11,22.22,-18.43,-263.31
2290,1715373850.995599,-0.57,0.53,0.29,5.07,-159.06,-252.99
2321,1715373851.036362,-0.87,0.42,0.05,1.53,7.75,-215.76
2348,1715373851.072082,-0.59,0.55,0.12,1.53,7.75,-215.76
2350,1715373851.074701,-0.59,0.55,0.12,13.31,-110.23,-194.89
2378,1715373851.111323,-1.03,0.21,0.27,-20.81,21.0,-229.0
2407,1715373851.149731,-0.95,0.31,-0.14,-2.08,-81.18,-124.02
2437,1715373851.188802,-0.73,0.34,0.71,-29.6,-40.65,-172.73
2467,1715373851.227792,-1.38,-0.03,0.1,-22.64,61.04,-149.48
2496,1715373851.265656,-0.92,0.23,0.4,-11.11,-136.23,-95.15
2525,1715373851.304159,-1.33,-0.0,0.47,-34.3,42.36,-146.55
2554,1715373851.343186,-1.07,0.11,0.39,-34.3,42.36,-146.55
2556,1715373851.345903,-1.07,0.11,0.39,0.12,-82.58,-83.8
2584,1715373851.382481,-1.02,0.13,0.68,-7.69,2.2,-149.41
2613,1715373851.420633,-1.3,-0.22,0.22,-7.69,2.2,-149.41
2614,1715373851.421945,-1.3,-0.22,0.22,21.18,-33.33,-135.25
2643,1715373851.460682,-0.91,-0.15,0.66,33.26,-59.14,-89.66
2673,1715373851.500174,-2.12,-0.78,0.76,5.74,45.29,-74.89
2701,1715373851.537061,-1.42,-0.26,0.38,5.74,45.29,-74.89
2703,1715373851.539662,-1.42,-0.26,0.38,-6.71,71.04,76.05
2734,1715373851.58017,-1.41,-0.32,0.44,5.07,37.78,89.36
2759,1715373851.613561,-1.66,-0.41,0.63,5.07,37.78,89.36
2761,1715373851.616249,-1.66,-0.41,0.63,18.86,12.27,161.01
2801,1715373851.669285,-1.45,-0.15,0.56,19.65,69.34,222.35
2818,1715373851.692122,-1.43,-0.07,0.36,16.97,53.96,242.98
2847,1715373851.730042,-1.28,-0.15,0.43,16.97,53.96,242.98
2849,1715373851.733453,-1.28,-0.15,0.43,26.0,20.94,310.61
2877,1715373851.770718,-0.78,0.14,0.25,26.0,20.94,310.61
2879,1715373851.773538,-0.78,0.14,0.25,40.22,64.58,311.89
2905,1715373851.807843,-0.56,0.14,0.17,40.22,64.58,311.89
2907,1715373851.810553,-0.56,0.14,0.17,18.07,29.17,337.77
2936,1715373851.848449,-0.29,0.34,0.2,31.01,75.62,299.8
2964,1715373851.886065,-0.36,0.31,0.02,15.93,95.89,295.53
2995,1715373851.926706,0.1,0.54,0.17,13.85,56.21,312.74
3022,1715373851.962099,0.14,0.47,-0.02,24.9,114.44,260.62
3051,1715373851.999837,0.45,0.5,-0.2,24.9,114.44,260.62
3052,1715373852.001141,0.45,0.5,-0.2,-17.21,42.85,281.13
3082,1715373852.040352,0.8,0.55,0.16,-50.72,-4.7,234.8
3111,1715373852.078459,0.65,0.38,0.31,-50.72,-4.7,234.8
3113,1715373852.081108,0.65,0.38,0.31,-18.43,45.9,196.29
3139,1715373852.115409,0.91,0.5,0.22,-18.43,45.9,196.29
3142,1715373852.119389,0.91,0.5,0.22,0.67,90.7,193.73
3174,1715373852.161305,0.94,0.52,0.22,7.02,86.36,138.43
3198,1715373852.193087,0.84,0.35,0.31,7.02,86.36,138.43
3200,1715373852.195681,0.84,0.35,0.31,15.08,94.67,138.67
3227,1715373852.231091,1.03,0.5,0.34,20.81,82.15,117.07
3257,1715373852.271289,0.94,0.44,0.4,6.04,39.61,93.87
3284,1715373852.308419,0.94,0.39,0.36,6.04,39.61,93.87
3285,1715373852.309773,0.94,0.39,0.36,6.04,45.35,90.52
3309,1715373852.346232,1.03,0.3,0.31,6.04,45.35,90.52
3311,1715373852.349186,1.03,0.3,0.31,-10.38,14.53,74.28
3339,1715373852.386397,1.27,0.09,0.59,-6.29,-7.63,47.3
3367,1715373852.424402,1.35,0.06,0.37,1.53,-7.14,11.11
3394,1715373852.4617,1.14,0.12,0.61,-0.73,-22.77,-33.02
3423,1715373852.500327,1.29,0.22,0.56,43.15,-3.72,-59.63
3452,1715373852.539048,1.31,0.12,0.64,62.62,-15.99,-112.92
3480,1715373852.57659,1.21,0.07,0.23,65.61,-33.33,-151.79
3509,1715373852.614999,1.17,0.32,0.17,33.26,-83.56,-197.33
3537,1715373852.654019,0.88,0.27,0.07,14.83,-105.83,-230.9
3566,1715373852.692462,0.69,0.4,0.16,-7.63,-108.76,-224.98
3595,1715373852.730986,0.55,0.58,0.3,-7.63,-108.76,-224.98
3597,1715373852.733594,0.55,0.58,0.3,-1.16,-92.29,-255.37
3630,1715373852.777087,0.2,0.45,0.26,11.9,-83.37,-263.79
3676,1715373852.8391,0.13,0.66,0.18,5.43,-64.76,-242.55
3685,1715373852.851239,-0.01,0.56,0.09,10.99,-100.71,-268.49
3710,1715373852.884318,-0.35,0.56,0.36,14.16,-37.11,-253.23
3749,1715373852.937421,-0.33,0.66,0.17,-3.72,-101.93,-231.81
3767,1715373852.962177,-1.0,0.37,0.26,39.49,23.44,-266.72
3796,1715373853.001079,-0.91,0.55,-0.14,12.7,-19.84,-213.01
3826,1715373853.04119,-1.03,0.37,0.32,2.44,-32.71,-225.95
3853,1715373853.078285,-1.23,0.34,-0.13,14.65,-12.39,-149.84
3881,1715373853.11632,-0.83,0.52,0.3,14.65,-12.39,-149.84
3882,1715373853.117664,-0.83,0.52,0.3,5.25,-72.2,-132.08
3910,1715373853.154259,-0.99,0.26,-0.03,-2.01,-16.36,-166.87
3940,1715373853.193944,-0.83,0.27,0.33,-1.59,-94.18,-142.21
3970,1715373853.232969,-1.13,-0.03,0.3,-1.59,-94.18,-142.21
3972,1715373853.235569,-1.13,-0.03,0.3,1.59,13.49,-190.37
3999,1715373853.271005,-1.41,-0.15,0.22,1.59,13.49,-190.37
4000,1715373853.272297,-1.41,-0.15,0.22,3.72,-29.17,-120.54
4029,1715373853.310183,-1.42,-0.02,0.39,-6.53,-0.55,-103.94
4058,1715373853.347901,-1.5,-0.1,0.41,-6.53,-0.55,-103.94
4060,1715373853.350532,-1.5,-0.1,0.41,7.75,6.59,-103.58
4088,1715373853.386917,-1.39,-0.13,0.34,7.75,6.59,-103.58
4090,1715373853.389495,-1.39,-0.13,0.34,24.9,-12.82,-59.27
4117,1715373853.424636,-1.37,-0.35,0.28,20.57,12.82,-31.25
4147,1715373853.464097,-1.58,-0.44,0.12,20.57,12.82,-31.25
4148,1715373853.465424,-1.58,-0.44,0.12,8.97,21.91,52.61
4177,1715373853.503214,-1.54,-0.35,0.26,8.97,21.91,52.61
4178,1715373853.504419,-1.54,-0.35,0.26,7.14,17.52,118.16
4206,1715373853.541128,-1.59,-0.26,0.24,7.14,17.52,118.16
4208,1715373853.54371,-1.59,-0.26,0.24,2.2,29.6,184.63
4237,1715373853.581828,-1.31,-0.06,0.31,12.51,21.61,229.68
4266,1715373853.619399,-1.2,0.02,0.25,7.08,33.45,253.6
4295,1715373853.657617,-1.01,0.11,0.32,12.45,80.26,280.21
4324,1715373853.695829,-0.75,0.28,0.09,6.71,80.69,275.57
4353,1715373853.733521,-0.66,0.23,0.03,6.71,80.69,275.57
4355,1715373853.736165,-0.66,0.23,0.03,-6.84,33.57,308.41
4383,1715373853.77246,-0.22,0.55,0.14,-6.84,33.57,308.41
4385,1715373853.774929,-0.22,0.55,0.14,-4.58,74.1,292.11
4406,1715373853.802283,-0.16,0.55,-0.13,-21.06,45.72,258.42
4432,1715373853.840095,-0.09,0.51,0.13,-21.06,45.72,258.42
4434,1715373853.842689,-0.09,0.51,0.13,-35.89,15.75,249.82
4463,1715373853.880624,0.13,0.67,0.09,-21.3,46.39,253.6
4483,1715373853.906996,0.3,0.71,-0.05,-21.3,46.39,253.6
4486,1715373853.910932,0.3,0.71,-0.05,-20.69,27.34,226.62
4511,1715373853.944803,0.36,0.67,0.28,-20.69,27.34,226.62
4513,1715373853.94752,0.36,0.67,0.28,-22.4,20.32,220.52
4541,1715373853.984461,0.59,0.68,0.09,-22.4,20.32,220.52
4543,1715373853.987071,0.59,0.68,0.09,8.67,70.74,207.76
4571,1715373854.024195,0.62,0.7,0.32,-2.2,50.96,164.31
4600,1715373854.062713,0.51,0.48,0.18,-2.2,50.96,164.31
4602,1715373854.065298,0.51,0.48,0.18,15.63,79.22,197.88
4633,1715373854.105885,0.94,0.52,0.11,-1.28,34.79,186.34
4660,1715373854.141231,0.97,0.27,0.21,-19.47,30.27,166.32
4688,1715373854.177672,1.04,0.31,0.13,-13.31,40.89,144.84
4719,1715373854.218731,0.95,0.25,0.11,-13.31,40.89,144.84
4720,1715373854.22005,0.95,0.25,0.11,-24.66,52.19,122.92
4746,1715373854.253898,1.05,0.27,0.23,-44.62,34.48,109.62
4776,1715373854.293175,1.14,0.21,0.35,-44.62,34.48,109.62
4778,1715373854.295823,1.14,0.21,0.35,-49.32,40.65,90.88
4799,1715373854.323632,1.14,0.17,0.42,-47.67,17.33,66.89
4827,1715373854.359779,1.23,0.11,0.5,-41.32,2.5,45.72
4856,1715373854.397902,1.36,-0.01,0.5,-41.32,2.5,45.72
4859,1715373854.40163,1.36,-0.01,0.5,-7.63,0.61,-7.39
4879,1715373854.428369,1.37,-0.1,0.35,1.16,-10.01,-44.92
4907,1715373854.464825,1.52,-0.25,0.41,10.5,-21.79,-110.84
4937,1715373854.503807,1.48,-0.16,0.42,22.95,-29.11,-175.96
4964,1715373854.540716,1.21,0.05,0.33,35.64,-33.2,-243.04
4994,1715373854.579852,0.83,0.13,0.35,42.36,-42.36,-290.41
5023,1715373854.619391,0.66,0.43,0.24,44.31,-55.66,-291.08
5052,1715373854.657144,0.43,0.5,0.41,53.41,-58.9,-340.64
5081,1715373854.694852,-0.03,0.53,0.06,53.41,-58.9,-340.64
5086,1715373854.701439,-0.03,0.53,0.06,36.25,-55.79,-273.13
5112,1715373854.735271,0.12,0.82,0.26,42.6,-59.2,-320.37
5141,1715373854.772823,-0.34,0.42,0.0,7.14,-62.56,-319.46
5170,1715373854.811206,-0.31,0.71,0.29,5.98,1.95,-302.86
5192,1715373854.839808,-0.42,0.52,-0.06,26.25,-2.14,-340.88
5219,1715373854.876561,-0.92,0.24,0.26,26.25,-2.14,-340.88
5220,1715373854.877846,-0.92,0.24,0.26,1.22,-62.26,-278.63
5250,1715373854.917231,-0.8,0.47,-0.13,20.87,-56.09,-181.7
5280,1715373854.95579,-0.53,0.46,0.43,10.99,-168.33,-194.46
5310,1715373854.99519,-0.88,0.17,-0.03,-23.38,4.46,-205.14
5338,1715373855.032173,-0.8,0.12,0.49,-23.38,4.46,-205.14
5340,1715373855.034802,-0.8,0.12,0.49,1.1,-85.45,-204.65
5368,1715373855.071158,-1.22,-0.25,0.31,-22.28,-34.79,-216.86
5398,1715373855.110308,-1.32,-0.25,0.38,-22.28,-34.79,-216.86
5400,1715373855.112881,-1.32,-0.25,0.38,-25.57,-6.96,-154.54
5429,1715373855.150237,-1.11,-0.17,0.61,-25.57,-6.96,-154.54
5430,1715373855.151524,-1.11,-0.17,0.61,-7.45,-63.66,-145.69
5457,1715373855.188894,-1.22,-0.27,0.47,-10.68,-18.92,-134.16
5487,1715373855.227739,-0.87,-0.16,0.62,11.29,-48.28,-103.27
5516,1715373855.265251,-1.03,-0.44,0.56,11.29,-48.28,-103.27
5518,1715373855.267996,-1.03,-0.44,0.56,-12.57,52.0,-163.88
5545,1715373855.302791,-1.54,-0.8,0.47,-12.57,52.0,-163.88
5551,1715373855.310559,-1.54,-0.8,0.47,-21.85,29.17,-74.77
5577,1715373855.344233,-1.38,-0.72,0.45,-18.13,40.41,17.4
5624,1715373855.405593,-1.43,-0.62,0.45,-0.24,20.69,47.3
5635,1715373855.420305,-1.41,-0.6,0.48,11.47,14.04,107.12
5679,1715373855.47782,-1.29,-0.5,0.44,14.77,43.95,141.54
5694,1715373855.497321,-1.4,-0.58,0.29,25.33,26.06,209.47
5723,1715373855.535176,-1.11,-0.38,0.35,25.33,26.06,209.47
5724,1715373855.536472,-1.11,-0.38,0.35,10.38,67.44,263.85
5752,1715373855.573093,-1.01,-0.21,0.22,10.38,67.44,263.85
5754,1715373855.575743,-1.01,-0.21,0.22,-7.75,47.55,290.41
5783,1715373855.613193,-0.94,-0.08,0.17,2.56,61.46,317.87
5811,1715373855.649721,-0.66,0.09,0.19,9.22,56.76,358.7
5841,1715373855.688938,-0.6,0.27,0.01,3.72,16.17,360.35
5870,1715373855.726584,-0.12,0.62,0.36,28.26,51.15,346.01
5899,1715373855.764608,0.11,0.76,-0.14,28.26,51.15,346.01
5901,1715373855.767268,0.11,0.76,-0.14,3.36,65.43,269.17
5930,1715373855.804777,0.1,0.71,0.1,-18.86,8.79,231.08
5959,1715373855.842555,0.17,0.71,0.15,-5.74,46.94,209.41
5988,1715373855.88049,0.23,0.79,0.17,2.93,49.93,178.77
6016,1715373855.918499,0.26,0.74,-0.09,2.93,49.93,178.77
6017,1715373855.919836,0.26,0.74,-0.09,-21.3,64.82,188.17
6046,1715373855.958166,0.4,0.73,0.22,-21.3,64.82,188.17
6047,1715373855.959459,0.4,0.73,0.22,-38.88,26.25,181.21
6076,1715373855.997382,0.64,0.56,0.16,-26.18,68.6,194.46
6105,1715373856.035107,0.7,0.51,0.21,-37.05,47.42,187.56
6134,1715373856.073455,0.82,0.41,0.41,-22.46,64.27,175.96
6165,1715373856.113984,0.91,0.41,0.26,-19.59,63.72,166.08
6193,1715373856.151261,0.77,0.29,0.36,-19.59,63.72,166.08
6194,1715373856.152578,0.77,0.29,0.36,-31.07,51.33,155.64
6222,1715373856.190189,0.86,0.34,0.47,-40.1,56.4,170.17
6251,1715373856.228188,1.1,0.19,0.45,-36.5,38.7,141.97
6280,1715373856.266226,1.44,-0.08,0.63,-32.1,3.05,99.61
6310,1715373856.304845,1.57,-0.21,0.68,-32.1,3.05,99.61
6311,1715373856.306162,1.57,-0.21,0.68,-14.34,-15.99,17.33
6340,1715373856.34369,1.31,-0.19,0.46,26.79,-1.4,-46.81
6369,1715373856.382546,1.11,-0.03,0.27,11.35,-22.46,-78.43
6398,1715373856.420558,1.42,0.03,0.73,11.35,-22.46,-78.43
6400,1715373856.422913,1.42,0.03,0.73,22.46,-41.81,-120.97
6428,1715373856.459828,1.33,-0.07,0.51,63.29,-22.03,-197.75
6457,1715373856.498075,1.17,0.14,0.4,63.29,-22.03,-197.75
6459,1715373856.500653,1.17,0.14,0.4,48.22,-54.5,-239.07
6485,1715373856.535265,1.07,0.31,0.36,48.22,-54.5,-239.07
6486,1715373856.536574,1.07,0.31,0.36,67.08,-46.81,-304.32
6515,1715373856.575116,0.39,0.19,0.07,67.08,-46.81,-304.32
6517,1715373856.577761,0.39,0.19,0.07,46.57,-67.14,-313.42
6546,1715373856.61646,0.51,0.62,0.45,27.1,-90.21,-291.5
6586,1715373856.668417,0.02,0.28,0.16,62.68,-3.05,-345.28
6603,1715373856.690301,-0.14,0.58,0.26,62.68,-3.05,-345.28
6605,1715373856.692859,-0.14,0.58,0.26,13.73,-62.13,-252.38
6632,1715373856.728578,-0.12,0.67,0.05,57.19,13.61,-285.16
6665,1715373856.77172,-0.36,0.51,0.1,17.46,-119.63,-253.66
6692,1715373856.806711,-0.47,0.51,0.21,23.56,70.86,-270.63
6727,1715373856.852008,-0.43,0.45,-0.0,42.05,-101.62,-267.88
6751,1715373856.883074,-0.96,0.07,0.22,4.7,58.78,-286.68
6780,1715373856.921052,-0.95,0.17,-0.08,4.7,58.78,-286.68
6782,1715373856.923649,-0.95,0.17,-0.08,37.11,-46.45,-212.95
6811,1715373856.962129,-1.11,-0.13,0.05,18.55,21.48,-280.4
6841,1715373857.001183,-1.33,-0.15,0.03,9.28,-44.01,-182.86
6870,1715373857.038642,-1.07,-0.05,0.22,22.34,-56.27,-169.98
6900,1715373857.078014,-1.31,-0.3,0.12,14.34,-51.94,-187.13
6928,1715373857.11768,-1.12,-0.31,0.57,40.59,-59.33,-136.17
6956,1715373857.156202,-1.27,-0.44,0.31,40.59,-59.33,-136.17
6957,1715373857.157522,-1.27,-0.44,0.31,45.41,-46.51,-152.83
6979,1715373857.186214,-1.24,-0.48,0.59,45.41,-46.51,-152.83
6980,1715373857.187521,-1.24,-0.48,0.59,78.98,-75.87,-131.1
7007,1715373857.222633,-1.29,-0.64,0.55,78.98,-75.87,-131.1
7009,1715373857.225225,-1.29,-0.64,0.55,65.31,-18.49,-108.83
7038,1715373857.263081,-1.51,-0.84,0.51,44.31,13.24,-53.71
7067,1715373857.30131,-1.47,-0.76,0.46,35.64,27.1,41.2
7095,1715373857.337629,-1.41,-0.81,0.47,35.64,27.1,41.2
7097,1715373857.340205,-1.41,-0.81,0.47,9.52,59.57,91.13
7126,1715373857.377706,-1.44,-0.68,0.4,-4.21,84.11,178.65
7155,1715373857.415591,-1.36,-0.61,0.27,-1.89,65.25,242.13
7184,1715373857.453422,-1.11,-0.43,0.33,-5.25,80.26,282.41
7213,1715373857.491671,-0.93,-0.19,0.14,-6.96,76.78,298.34
7243,1715373857.530819,-0.78,-0.03,0.19,-6.96,76.78,298.34
7244,1715373857.532132,-0.78,-0.03,0.19,-22.16,56.27,292.05
7273,1715373857.569745,-0.63,0.13,0.32,-10.62,66.41,301.15
7302,1715373857.607554,-0.63,0.25,-0.0,-10.62,66.41,301.15
7305,1715373857.611569,-0.63,0.25,-0.0,-16.48,98.39,274.35
7332,1715373857.646687,-0.41,0.35,0.05,-16.48,98.39,274.35
7333,1715373857.648026,-0.41,0.35,0.05,-24.72,14.53,323.55
7363,1715373857.687163,-0.24,0.39,0.33,-28.26,87.71,335.69
7403,1715373857.739112,0.06,0.49,0.1,-28.26,87.71,335.69
7404,1715373857.740205,0.06,0.49,0.1,-22.95,130.86,347.47
7419,1715373857.759941,0.39,0.55,-0.04,-31.31,61.52,344.3
7449,1715373857.799397,0.59,0.55,0.16,-53.53,45.96,301.76
7479,1715373857.838196,0.8,0.6,0.15,-29.24,51.7,257.08
