id,timestamp,acc_x,acc_y,acc_z,gyro_x,gyro_y,gyro_z
0,1715374064.654126,-0.15,0.86,0.62,26.55,8.18,13.55
9,1715374064.665959,-0.09,1.07,0.45,15.26,6.35,1.34
38,1715374064.703956,-0.01,0.96,0.32,1.04,4.88,-19.78
68,1715374064.742641,-0.04,1.23,0.86,-49.62,1.46,-24.11
98,1715374064.781136,0.11,1.11,0.56,-154.85,97.6,-90.88
127,1715374064.819099,-0.23,-0.5,1.08,-0.67,-54.32,-24.35
156,1715374064.856509,0.19,-0.19,1.01,-0.67,-54.32,-24.35
158,1715374064.859084,0.19,-0.19,1.01,-92.77,26.55,333.25
182,1715374064.895187,-0.01,2.43,0.49,460.82,398.19,289.0
212,1715374064.933951,-0.11,0.28,-0.01,-69.21,54.69,91.13
241,1715374064.971325,0.75,1.51,0.57,-73.0,17.21,133.54
271,1715374065.010336,0.66,1.04,0.16,-100.83,57.56,2.14
301,1715374065.049124,-0.45,0.49,0.25,51.76,57.98,-97.66
330,1715374065.087413,0.29,1.04,-0.06,51.76,57.98,-97.66
334,1715374065.092585,0.29,1.04,-0.06,179.32,-189.15,-46.81
359,1715374065.125002,0.28,0.92,-0.97,179.32,-189.15,-46.81
363,1715374065.130194,0.28,0.92,-0.97,142.09,-360.47,96.68
391,1715374065.166627,0.46,1.3,-0.06,-33.39,-268.37,106.14
419,1715374065.203271,0.55,1.65,-0.14,-33.39,-268.37,106.14
421,1715374065.205854,0.55,1.65,-0.14,-222.72,72.69,-71.72
455,1715374065.250503,0.47,1.55,-0.68,-144.96,-47.97,-57.13
491,1715374065.296891,0.25,1.11,0.22,-10.93,-153.08,36.13
512,1715374065.323935,0.37,0.46,0.2,2.87,-110.96,65.98
539,1715374065.358453,0.42,-0.11,1.0,-104.8,-20.81,-22.64
573,1715374065.402675,0.17,-0.37,1.58,-120.18,-82.28,69.46
598,1715374065.435275,0.41,0.04,1.43,-113.04,-88.81,48.52
629,1715374065.475752,0.49,0.31,1.64,-71.9,-41.14,110.66
659,1715374065.514439,0.39,0.69,1.34,-33.26,31.25,14.28
688,1715374065.552206,0.45,0.89,0.94,22.46,21.42,20.45
718,1715374065.590623,0.36,0.56,0.94,33.2,66.59,-23.5
747,1715374065.627896,0.57,0.28,0.96,33.2,66.59,-23.5
749,1715374065.630475,0.57,0.28,0.96,32.84,66.35,22.09
777,1715374065.666252,0.53,0.6,0.85,38.64,49.44,29.36
807,1715374065.704882,0.27,0.52,0.87,29.42,100.52,41.08
836,1715374065.742128,0.5,0.53,0.85,22.03,13.73,65.55
867,1715374065.782364,0.44,0.51,0.95,22.03,13.73,65.55
868,1715374065.783671,0.44,0.51,0.95,46.2,0.61,55.18
897,1715374065.821288,0.67,0.64,0.6,21.18,44.13,43.52
926,1715374065.858795,0.58,0.65,0.64,21.18,44.13,43.52
928,1715374065.861347,0.58,0.65,0.64,40.34,12.02,27.4
954,1715374065.896606,0.51,0.59,0.84,38.45,54.99,38.27
984,1715374065.935392,0.62,0.67,0.47,25.7,33.69,27.1
1014,1715374065.974506,0.54,0.69,0.76,37.9,-30.64,40.77
1044,1715374066.012996,0.56,0.58,0.67,40.65,53.53,41.93
1073,1715374066.050473,0.45,0.6,0.4,40.65,53.53,41.93
1075,1715374066.053043,0.45,0.6,0.4,17.52,-10.38,40.41
1098,1715374066.083007,0.38,0.72,0.81,32.65,-58.23,65.0
1126,1715374066.119417,0.43,0.75,0.79,32.65,-58.23,65.0
1128,1715374066.122054,0.43,0.75,0.79,79.59,-9.52,80.38
1157,1715374066.159357,0.99,1.0,0.52,79.59,-9.52,80.38
1159,1715374066.161796,0.99,1.0,0.52,166.2,41.69,98.63
1187,1715374066.198091,2.35,0.81,-2.86,84.35,75.38,8.85
1217,1715374066.236515,1.18,0.55,-0.49,-89.72,-128.36,-27.83
1248,1715374066.276627,0.64,0.68,0.36,-89.72,-128.36,-27.83
1250,1715374066.279219,0.64,0.68,0.36,-116.21,-43.88,-36.19
1279,1715374066.316791,0.72,0.86,0.38,-88.01,0.18,-39.79
1308,1715374066.3541,0.85,0.83,0.59,-88.01,0.18,-39.79
1310,1715374066.356659,0.85,0.83,0.59,-31.31,20.08,-65.73
1338,1715374066.392729,0.69,0.68,0.42,-31.31,20.08,-65.73
1340,1715374066.395379,0.69,0.68,0.42,-18.74,67.63,-83.13
1367,1715374066.430307,0.59,0.68,0.58,-18.74,67.63,-83.13
1372,1715374066.436758,0.59,0.68,0.58,-23.99,-55.73,-55.66
1398,1715374066.470642,0.42,0.68,0.84,-11.9,26.79,-70.25
1428,1715374066.509535,0.43,0.57,0.41,-11.9,26.79,-70.25
1429,1715374066.510819,0.43,0.57,0.41,-42.36,-32.23,-27.59
1458,1715374066.548168,0.47,0.75,0.91,-8.12,-20.2,-41.38
1501,1715374066.603437,0.44,0.5,0.43,-38.51,-15.69,-32.35
1522,1715374066.630265,0.42,0.63,0.95,-29.24,-40.65,-21.06
1558,1715374066.676891,0.42,0.48,0.55,-21.42,-3.85,-36.87
1577,1715374066.701855,0.48,0.56,0.81,-26.79,-55.85,-4.88
1606,1715374066.740767,0.49,0.58,0.79,-3.11,-17.27,-23.25
1635,1715374066.778225,0.47,0.6,0.82,-3.11,-17.27,-23.25
1640,1715374066.784705,0.47,0.6,0.82,-19.84,-21.97,-16.66
1666,1715374066.818426,0.47,0.5,0.75,-26.0,12.21,-36.32
1695,1715374066.85627,0.47,0.5,0.79,-14.77,-23.74,-12.57
1727,1715374066.897874,0.39,0.52,0.87,-51.57,12.94,-43.33
1755,1715374066.934219,0.39,0.47,0.88,-45.41,-28.81,-21.0
1785,1715374066.972938,0.36,0.67,1.2,-45.41,-28.81,-21.0
1788,1715374066.97685,0.36,0.67,1.2,-44.56,-14.53,-26.86
1809,1715374067.003781,0.34,0.63,1.33,-44.56,-14.53,-26.86
1811,1715374067.006379,0.34,0.63,1.33,-26.12,4.88,-23.8
1841,1715374067.045394,0.28,0.57,1.21,-26.12,4.88,-23.8
1842,1715374067.046695,0.28,0.57,1.21,21.24,34.67,-27.1
1869,1715374067.08155,0.26,0.53,1.24,21.24,34.67,-27.1
1870,1715374067.082852,0.26,0.53,1.24,37.72,5.07,27.47
1899,1715374067.120386,0.25,0.54,1.44,59.94,62.44,5.55
1929,1715374067.1585,0.07,0.19,1.36,70.43,78.43,23.56
1958,1715374067.195858,0.13,0.29,1.15,70.43,78.43,23.56
1960,1715374067.198451,0.13,0.29,1.15,54.75,90.27,81.73
1988,1715374067.234609,0.14,0.06,1.57,59.33,86.24,99.73
2018,1715374067.27311,-0.14,-0.16,1.34,95.21,63.11,105.71
2049,1715374067.313142,0.13,0.09,1.59,110.96,-113.4,227.6
2078,1715374067.351279,0.85,0.46,0.06,174.8,-33.39,159.48
2108,1715374067.389729,1.27,0.69,-0.99,198.85,-24.54,96.92
2137,1715374067.427369,2.39,0.49,-2.1,198.85,-24.54,96.92
2139,1715374067.429956,2.39,0.49,-2.1,178.16,182.37,37.66
2168,1715374067.467383,2.55,0.84,-2.15,42.85,-84.29,-55.6
2199,1715374067.507689,0.88,0.68,-0.63,-65.12,-46.33,-96.37
2229,1715374067.546122,0.41,0.88,0.23,-87.22,-53.65,-48.58
2259,1715374067.58484,0.46,0.87,0.44,-71.23,-19.53,-52.37
2288,1715374067.624007,0.51,0.68,0.29,-65.0,10.13,-53.96
2317,1715374067.661299,0.57,0.67,0.31,-65.0,10.13,-53.96
2319,1715374067.663909,0.57,0.67,0.31,-77.82,-44.98,-49.93
2347,1715374067.699927,0.41,0.66,0.8,-77.82,-44.98,-49.93
2350,1715374067.703817,0.41,0.66,0.8,-75.68,-18.92,-44.49
2378,1715374067.739735,0.42,0.61,0.4,-75.68,-18.92,-44.49
2379,1715374067.741022,0.42,0.61,0.4,-61.83,-3.91,-17.52
2409,1715374067.779627,0.56,0.82,0.92,-66.96,-67.26,-3.97
2437,1715374067.815587,0.46,0.69,0.6,-66.96,-67.26,-3.97
2439,1715374067.818176,0.46,0.69,0.6,-56.95,27.22,-30.15
2486,1715374067.87864,0.59,0.72,0.65,-50.48,-95.46,8.97
2498,1715374067.894163,0.54,0.64,0.69,-50.48,-95.46,8.97
2500,1715374067.896545,0.54,0.64,0.69,-40.83,-1.28,-30.94
2542,1715374067.951166,0.58,0.61,0.59,-40.83,-1.28,-30.94
2543,1715374067.952472,0.58,0.61,0.59,-47.97,-34.12,-12.7
2558,1715374067.971726,0.6,0.59,0.76,-47.97,-34.12,-12.7
2560,1715374067.974326,0.6,0.59,0.76,-42.66,-29.91,-20.32
2590,1715374068.012808,0.57,0.56,0.77,-47.12,-6.77,-33.02
2619,1715374068.050599,0.55,0.62,0.85,-16.3,-68.6,-18.62
2650,1715374068.09039,0.48,0.59,0.81,-42.66,5.98,-52.73
2679,1715374068.127668,0.48,0.6,0.82,-17.76,-25.63,-50.72
2708,1715374068.165257,0.4,0.56,0.69,34.91,-38.02,-56.82
2740,1715374068.207115,0.34,0.53,0.79,-26.67,-3.85,-56.52
2761,1715374068.234218,0.39,0.55,0.89,-27.53,-6.1,-42.91
2790,1715374068.271699,0.33,0.66,1.11,-27.53,20.26,-41.44
2821,1715374068.311588,0.08,0.57,1.23,-9.28,42.85,-40.16
2850,1715374068.349002,0.14,0.54,1.3,-9.28,42.85,-40.16
2852,1715374068.351599,0.14,0.54,1.3,24.72,57.07,12.94
2880,1715374068.387988,0.08,0.58,1.57,50.17,43.46,36.56
2910,1715374068.426508,0.1,0.25,1.61,65.8,110.96,35.34
2939,1715374068.464611,0.11,0.16,1.61,78.61,110.47,89.54
2968,1715374068.501869,0.14,0.04,1.29,67.69,118.47,125.37
2998,1715374068.540615,0.22,0.5,1.81,67.69,118.47,125.37
3000,1715374068.542966,0.22,0.5,1.81,96.62,147.22,161.5
3028,1715374068.579236,0.09,0.27,0.75,96.62,147.22,161.5
3030,1715374068.581887,0.09,0.27,0.75,122.38,137.57,183.04
3059,1715374068.619233,0.77,0.51,0.1,173.28,-1.22,233.52
3088,1715374068.656834,1.08,0.12,-0.33,217.04,-14.47,188.84
3118,1715374068.695539,2.09,-0.1,-1.31,198.91,12.27,150.09
3148,1715374068.734303,3.09,0.21,-1.92,54.14,5.74,34.06
3178,1715374068.773101,1.77,0.25,-1.07,-70.37,-71.41,-91.86
3208,1715374068.811622,0.78,0.53,-0.17,-70.37,-71.41,-91.86
3209,1715374068.812934,0.78,0.53,-0.17,-113.04,-44.49,-110.53
3238,1715374068.850635,0.58,0.71,0.18,-113.04,-44.49,-110.53
3239,1715374068.851912,0.58,0.71,0.18,-108.34,-28.2,-113.65
3269,1715374068.890902,0.43,0.65,0.41,-83.56,-48.22,-100.4
3297,1715374068.927165,0.38,0.74,0.57,-83.56,-48.22,-100.4
3299,1715374068.929835,0.38,0.74,0.57,-88.44,-4.27,-104.13
3327,1715374068.965982,0.4,0.67,0.36,-88.44,-4.27,-104.13
3328,1715374068.967272,0.4,0.67,0.36,-94.67,-8.36,-101.14
3356,1715374069.003691,0.37,0.76,0.77,-65.55,-60.18,-56.21
3396,1715374069.055969,0.36,0.81,0.61,-56.03,38.82,-96.68
3422,1715374069.089616,0.35,0.66,0.5,-57.13,-74.22,-39.98
3444,1715374069.118043,0.41,0.78,0.76,-51.51,-27.47,-43.76
3485,1715374069.171224,0.38,0.6,0.63,-56.46,-49.26,-40.65
3501,1715374069.192253,0.34,0.71,0.82,-37.66,-40.22,-44.49
3535,1715374069.235989,0.31,0.53,0.66,-45.72,-60.12,-49.19
3562,1715374069.271277,0.26,0.73,1.03,-55.85,-67.32,-19.96
3591,1715374069.308826,0.3,0.55,0.73,-28.5,-121.46,9.7
3622,1715374069.348916,0.55,0.63,0.81,-6.65,-167.05,100.4
3650,1715374069.385164,0.66,0.61,0.78,-6.65,-167.05,100.4
3652,1715374069.387752,0.66,0.61,0.78,-36.13,-131.77,68.54
3677,1715374069.423959,0.68,0.68,1.01,-36.13,-131.77,68.54
3679,1715374069.426532,0.68,0.68,1.01,-59.02,-112.43,55.48
3708,1715374069.464208,0.64,0.71,1.12,-60.91,-49.26,6.9
3738,1715374069.5025,0.48,0.69,1.31,-60.91,-49.26,6.9
3740,1715374069.505056,0.48,0.69,1.31,-31.49,9.58,-41.5
3768,1715374069.541346,0.3,0.34,1.1,1.71,51.82,-46.57
3797,1715374069.579198,0.52,0.47,1.19,59.69,9.95,28.44
3827,1715374069.618933,0.53,0.49,1.17,59.69,9.95,28.44
3828,1715374069.620224,0.53,0.49,1.17,41.32,84.35,-52.25
3856,1715374069.656523,0.47,0.07,0.99,41.32,84.35,-52.25
3857,1715374069.657843,0.47,0.07,0.99,32.23,69.52,-9.83
3886,1715374069.695592,0.58,0.22,1.4,-13.55,28.69,41.93
3915,1715374069.732792,0.6,0.12,0.9,63.66,1.65,54.99
3945,1715374069.771346,0.95,0.24,1.21,63.66,1.65,54.99
3948,1715374069.775221,0.95,0.24,1.21,33.51,-110.17,129.46
3975,1715374069.81033,0.8,0.42,0.84,51.03,-10.13,-19.71
4005,1715374069.849481,0.43,0.25,0.42,53.53,-168.03,49.56
4036,1715374069.888997,0.69,1.01,0.08,25.02,-49.74,-26.12
4066,1715374069.927958,0.03,1.22,-0.56,133.85,-51.21,-50.66
4096,1715374069.967019,0.88,1.69,-1.92,133.85,-51.21,-50.66
4097,1715374069.968396,0.88,1.69,-1.92,154.48,149.6,-20.2
4126,1715374070.006005,0.98,0.84,-2.4,75.93,-26.06,-3.17
4155,1715374070.043595,0.78,0.94,-0.5,75.93,-26.06,-3.17
4157,1715374070.046175,0.78,0.94,-0.5,-67.5,-21.73,19.1
4186,1715374070.084255,0.76,0.91,-0.03,-43.76,33.69,-13.37
4216,1715374070.12297,0.65,0.68,0.17,-43.76,33.69,-13.37
4217,1715374070.124254,0.65,0.68,0.17,-41.26,-7.32,-29.3
4245,1715374070.16063,0.61,0.84,0.52,-8.73,10.62,-42.36
4273,1715374070.199041,0.45,0.56,0.27,-8.73,10.62,-42.36
4275,1715374070.201701,0.45,0.56,0.27,-8.61,-24.9,-24.05
4303,1715374070.237843,0.48,0.72,0.6,-22.89,0.24,2.2
4335,1715374070.279204,0.58,0.62,0.28,13.0,-27.65,-17.82
4363,1715374070.315163,0.62,0.67,0.4,-22.77,-9.16,4.39
4392,1715374070.352769,0.72,0.65,0.37,24.35,-36.62,-7.2
4417,1715374070.385202,0.65,0.57,0.41,4.46,-31.62,10.01
4462,1715374070.443654,0.73,0.62,0.47,-31.74,2.08,-13.55
4474,1715374070.458923,0.75,0.64,0.55,-31.74,2.08,-13.55
4476,1715374070.461492,0.75,0.64,0.55,7.69,-41.2,11.96
4540,1715374070.543836,0.83,0.7,0.62,-7.14,-63.66,34.12
4565,1715374070.576298,0.71,0.58,0.58,-7.14,-63.66,34.12
4568,1715374070.580162,0.71,0.58,0.58,-27.22,-23.44,9.09
4594,1715374070.61385,0.78,0.65,0.7,-27.22,-23.44,9.09
4595,1715374070.615175,0.78,0.65,0.7,-35.95,-25.27,0.37
4623,1715374070.651326,0.6,0.57,0.67,-35.95,-25.27,0.37
4625,1715374070.653899,0.6,0.57,0.67,-51.27,13.49,-21.0
4653,1715374070.690092,0.7,0.69,1.09,-51.27,13.49,-21.0
4654,1715374070.691372,0.7,0.69,1.09,-44.98,34.06,-34.79
4684,1715374070.729964,0.51,0.46,0.89,-6.04,47.42,-66.83
4713,1715374070.767667,0.51,0.55,0.85,-0.98,39.86,-14.95
4743,1715374070.80637,0.69,0.7,1.04,-0.98,39.86,-14.95
4745,1715374070.808925,0.69,0.7,1.04,39.43,24.78,0.79
4774,1715374070.846356,0.54,0.64,1.04,33.51,61.04,-26.25
4803,1715374070.884052,0.46,0.39,0.94,33.51,61.04,-26.25
4804,1715374070.885339,0.46,0.39,0.94,27.28,14.59,45.65
4832,1715374070.92161,0.86,0.63,1.14,27.28,14.59,45.65
4834,1715374070.924303,0.86,0.63,1.14,52.12,-6.84,67.57
4862,1715374070.961348,0.36,0.25,0.96,26.92,74.46,-28.32
4891,1715374070.998593,0.58,0.4,0.32,64.03,-98.02,119.57
4926,1715374071.043608,0.66,0.67,0.83,21.79,21.0,17.64
4951,1715374071.075989,0.35,0.33,0.04,21.79,21.0,17.64
4952,1715374071.077278,0.35,0.33,0.04,23.44,22.22,17.7
4980,1715374071.113865,0.86,1.07,0.51,23.44,22.22,17.7
4982,1715374071.116531,0.86,1.07,0.51,-23.44,-91.67,96.19
5012,1715374071.155301,0.77,1.09,0.26,30.58,-28.08,-48.89
5039,1715374071.190502,0.88,1.84,-0.77,84.29,47.85,-20.87
5069,1715374071.229383,1.24,0.84,-3.77,180.66,100.52,-63.96
5098,1715374071.266909,0.73,0.93,-0.78,-69.03,-117.8,18.07
5129,1715374071.306956,0.67,0.81,-0.31,-64.33,34.97,-22.03
5159,1715374071.345316,0.7,0.83,0.25,-64.33,34.97,-22.03
5161,1715374071.348021,0.7,0.83,0.25,-49.99,-26.31,-25.27
5189,1715374071.384531,0.73,0.9,0.49,-49.99,-26.31,-25.27
5190,1715374071.385811,0.73,0.9,0.49,-24.96,25.39,-44.92
5219,1715374071.423485,0.52,0.74,0.27,-3.72,-19.84,-41.63
5250,1715374071.463573,0.36,0.76,0.71,-29.36,12.45,-8.06
5278,1715374071.500267,0.6,0.76,0.23,14.95,6.53,-18.07
5307,1715374071.53855,0.49,0.7,0.52,-24.96,-10.5,22.83
5338,1715374071.578626,0.64,0.7,0.36,5.0,18.55,-1.4
5369,1715374071.618677,0.57,0.68,0.46,-24.41,-38.82,38.7
5406,1715374071.666454,0.71,0.78,0.6,-18.86,26.98,-8.54
5441,1715374071.711855,0.48,0.48,0.25,-11.78,-18.25,-13.31
5469,1715374071.74861,0.62,0.75,0.62,-24.05,-2.81,11.72
5488,1715374071.772995,0.64,0.6,0.31,-11.9,-15.5,-16.05
5540,1715374071.840208,0.73,0.75,0.54,-27.34,-14.71,3.66
5548,1715374071.850392,0.71,0.61,0.48,-4.64,-20.51,-13.55
5576,1715374071.886736,0.66,0.65,0.68,-4.64,-20.51,-13.55
5578,1715374071.889308,0.66,0.65,0.68,-33.94,-10.68,-9.03
5607,1715374071.926712,0.74,0.65,0.85,-35.95,-13.31,-12.88
5636,1715374071.964103,0.54,0.73,1.05,-53.22,29.54,-36.19
5667,1715374072.003887,0.53,0.64,1.06,-19.84,45.35,-47.0
5696,1715374072.041263,0.37,0.62,0.99,33.39,10.25,12.76
5726,1715374072.080164,0.78,0.83,0.94,57.68,8.18,35.83
5756,1715374072.118773,0.5,0.6,0.78,60.3,12.08,-4.09
5785,1715374072.1562,0.47,0.51,0.92,49.87,6.16,34.18
5814,1715374072.194071,0.41,0.43,0.84,49.87,6.16,34.18
5816,1715374072.196641,0.41,0.43,0.84,62.19,9.09,35.28
5845,1715374072.234021,0.68,0.57,0.97,36.62,34.0,35.46
5876,1715374072.274299,0.45,0.55,0.99,45.78,43.88,-2.32
5906,1715374072.313078,0.61,0.67,0.98,45.65,34.85,44.01
5935,1715374072.350435,0.73,0.87,0.65,83.5,-30.21,37.6
5964,1715374072.387922,0.26,0.6,-0.05,115.97,-4.7,8.67
5993,1715374072.425828,1.18,0.83,-1.56,115.97,-4.7,8.67
5995,1715374072.428401,1.18,0.83,-1.56,158.69,113.1,-6.41
6022,1715374072.463955,2.13,0.45,-4.58,158.69,113.1,-6.41
6024,1715374072.466605,2.13,0.45,-4.58,94.36,20.39,-69.4
6053,1715374072.503932,0.78,0.96,-0.95,-104.74,-89.48,-0.67
6083,1715374072.542658,0.27,0.74,-0.14,-87.22,-12.33,-23.56
6112,1715374072.580259,0.36,0.85,0.38,-79.71,1.95,1.1
6142,1715374072.619245,0.66,0.95,0.34,-28.69,27.1,-26.37
6173,1715374072.65926,0.56,0.82,0.29,-32.04,-42.42,-3.48
6202,1715374072.696314,0.6,0.96,0.48,-32.04,-42.42,-3.48
6204,1715374072.698891,0.6,0.96,0.48,-18.13,-7.57,-17.64
6234,1715374072.737128,0.49,0.77,0.17,-18.13,-7.57,-17.64
6235,1715374072.738415,0.49,0.77,0.17,-13.55,-15.5,-19.53
6263,1715374072.774715,0.5,0.89,0.49,-11.72,-22.77,14.59
6294,1715374072.814467,0.5,0.77,0.27,-11.72,-22.77,14.59
6295,1715374072.815784,0.5,0.77,0.27,-6.29,12.15,-18.74
6315,1715374072.841705,0.5,0.75,0.23,-6.29,12.15,-18.74
6317,1715374072.84428,0.5,0.75,0.23,-22.83,-33.94,21.06
6346,1715374072.881732,0.66,0.86,0.45,5.86,-13.24,12.57
6375,1715374072.919613,0.58,0.65,0.15,-15.32,-16.6,-8.79
6411,1715374072.968018,0.63,0.85,0.6,-39.31,-8.06,9.52
6434,1715374072.997765,0.63,0.69,0.49,-39.31,-8.06,9.52
6439,1715374073.004271,0.63,0.69,0.49,7.08,14.34,-16.91
6464,1715374073.036394,0.56,0.73,0.57,-22.64,0.49,4.52
6514,1715374073.100708,0.62,0.71,0.51,-13.92,47.91,-23.74
6546,1715374073.142375,0.6,0.71,0.49,-34.61,-9.22,-10.56
6554,1715374073.152944,0.57,0.68,0.7,-48.83,-12.45,-26.67
6584,1715374073.191795,0.53,0.72,0.7,-48.83,-12.45,-26.67
6585,1715374073.193102,0.53,0.72,0.7,-49.01,18.8,-35.22
6615,1715374073.231799,0.44,0.75,0.9,-46.08,5.49,-8.48
6644,1715374073.268754,0.45,0.87,1.06,-46.08,5.49,-8.48
6646,1715374073.271338,0.45,0.87,1.06,-0.37,34.97,-26.55
6675,1715374073.308627,0.32,0.73,0.92,32.41,27.04,-12.82
6705,1715374073.347253,0.36,0.78,1.0,38.02,26.61,-4.21
6733,1715374073.383727,0.34,0.65,0.93,54.93,31.19,-3.05
6763,1715374073.422586,0.38,0.54,0.83,54.93,31.19,-3.05
6765,1715374073.425166,0.38,0.54,0.83,23.5,19.59,37.84
6795,1715374073.463806,0.52,0.55,0.77,42.36,-1.28,50.78
6824,1715374073.501435,0.54,0.57,0.8,9.7,-1.89,44.25
6854,1715374073.540562,0.55,0.56,0.59,21.85,10.62,35.4
6884,1715374073.57962,0.67,0.76,0.64,8.42,-43.09,47.79
6913,1715374073.616797,0.53,0.72,0.54,21.0,-50.35,43.7
6943,1715374073.655596,0.52,0.78,0.1,7.08,-30.94,10.62
6973,1715374073.694529,0.42,1.08,-0.27,7.08,-30.94,10.62
6974,1715374073.695901,0.42,1.08,-0.27,48.95,10.19,-3.72
7002,1715374073.732531,1.23,1.49,-2.2,48.95,10.19,-3.72
7003,1715374073.733818,1.23,1.49,-2.2,134.52,160.34,-26.37
7026,1715374073.763495,1.51,1.17,-2.85,58.84,-7.69,-7.26
7055,1715374073.800767,0.87,0.98,-0.66,-40.77,-36.25,-14.22
7085,1715374073.839309,0.51,0.75,-0.09,-56.88,-16.91,-28.87
7116,1715374073.879506,0.59,0.83,0.19,-51.51,10.56,-45.9
7145,1715374073.917425,0.53,0.77,0.29,-51.51,10.56,-45.9
7146,1715374073.918711,0.53,0.77,0.29,-25.57,14.22,-60.85
7174,1715374073.955239,0.41,0.83,0.39,-25.57,14.22,-60.85
7178,1715374073.960458,0.41,0.83,0.39,-26.67,-41.93,-27.59
7206,1715374073.996256,0.27,0.81,0.49,-4.76,15.93,-37.84
7235,1715374074.033967,0.45,0.74,0.16,-23.8,-40.53,27.1
7266,1715374074.074465,0.52,0.9,0.71,-14.22,-24.35,12.76
7294,1715374074.111016,0.56,0.76,0.29,-19.29,-33.2,21.97
7324,1715374074.149672,0.73,0.76,0.31,-56.95,-43.7,15.93
7355,1715374074.18943,0.61,0.8,0.6,-56.95,-43.7,15.93
7356,1715374074.190712,0.61,0.8,0.6,-55.11,7.75,-50.23
7385,1715374074.228192,0.44,0.48,0.33,-43.09,-29.3,-10.38
7430,1715374074.286522,0.62,0.79,1.03,-35.4,-34.3,15.93
7448,1715374074.309726,0.53,0.59,0.77,-21.91,-21.61,0.85
7473,1715374074.342139,0.49,0.75,0.9,-21.91,-21.61,0.85
7486,1715374074.358771,0.49,0.75,0.9,-34.3,-26.0,4.09
7533,1715374074.419556,0.46,0.65,0.96,-46.69,38.57,-39.73
7534,1715374074.420849,0.51,0.68,1.0,-46.69,38.57,-39.73
7535,1715374074.422134,0.51,0.68,1.0,-35.16,7.32,-25.27
7564,1715374074.459629,0.38,0.58,1.08,-35.16,7.32,-25.27
7566,1715374074.462203,0.38,0.58,1.08,-22.22,62.07,-66.28
7594,1715374074.498337,0.38,0.5,0.94,9.4,44.01,-14.77
7623,1715374074.535596,0.43,0.69,1.11,9.4,44.01,-14.77
7625,1715374074.538145,0.43,0.69,1.11,37.05,18.86,30.4
7654,1715374074.575642,0.42,0.61,1.28,39.43,40.41,30.15
7684,1715374074.61474,0.34,0.43,1.33,62.93,21.06,37.54
7712,1715374074.650946,0.33,0.41,1.64,90.21,38.82,56.52
