timestamp,acc_x,acc_y,acc_z,gyro_x,gyro_y,gyro_z
1715849113.248666,0.0033575767,0.33178964,0.8577083,-0.17776585,-0.28282747,-0.20319901
1715849113.250009,0.0033575767,0.33178964,0.8577083,-0.17776585,-0.28282747,-0.20319901
1715849113.251321,0.0033575767,0.33178964,0.8577083,-0.17776585,-0.28282747,-0.20319901
1715849113.252578,0.0033575767,0.33178964,0.8577083,-0.17776585,-0.28282747,-0.20319901
1715849113.25389,0.0033575767,0.33178964,0.8577083,-0.17776585,-0.28282747,-0.20319901
1715849113.255141,0.0033575767,0.33178964,0.8577083,-0.17776585,-0.28282747,-0.20319901
1715849113.256401,0.0033575767,0.33178964,0.8577083,-0.17776585,-0.28282747,-0.20319901
1715849113.25766,0.0033575767,0.33178964,0.8577083,-0.17776585,-0.28282747,-0.20319901
1715849113.25891,0.0033575767,0.33178964,0.8577083,-0.17776585,-0.28282747,-0.20319901
1715849113.260165,0.0033575767,0.33178964,0.8577083,-0.17776585,-0.28282747,-0.20319901
1715849113.261418,0.0033575767,0.33178964,0.8577083,-0.17776585,-0.28282747,-0.20319901
1715849113.262676,0.0033575767,0.33178964,0.8577083,-0.17776585,-0.28282747,-0.20319901
1715849113.263932,0.0033575767,0.33178964,0.8577083,-0.17776585,-0.28282747,-0.20319901
1715849113.2652,0.0033575767,0.33178964,0.8577083,-0.17776585,-0.28282747,-0.20319901
1715849113.266394,0.0033575767,0.33178964,0.8577083,-0.17776585,-0.28282747,-0.20319901
1715849113.267652,0.0033575767,0.33178964,0.8577083,-0.17776585,-0.28282747,-0.20319901
1715849113.268867,0.0033575767,0.33178964,0.8577083,-0.17776585,-0.28282747,-0.20319901
1715849113.270052,0.0033575767,0.33178964,0.8577083,-0.17776585,-0.28282747,-0.20319901
1715849113.271269,0.0033575767,0.33178964,0.8577083,-0.17776585,-0.28282747,-0.20319901
1715849113.272452,0.039985687,0.3264175,0.86881876,0.10026793,-0.15393057,-0.45353594
1715849113.273658,0.017032072,0.3041354,0.8615542,0.10026793,-0.15393057,-0.45353594
1715849113.274877,0.017032072,0.3041354,0.8615542,0.10026793,-0.15393057,-0.45353594
1715849113.276096,0.017032072,0.3041354,0.8615542,0.10026793,-0.15393057,-0.45353594
1715849113.277317,0.017032072,0.3041354,0.8615542,0.10026793,-0.15393057,-0.45353594
1715849113.278594,0.017032072,0.3041354,0.8615542,0.10026793,-0.15393057,-0.45353594
1715849113.279799,0.017032072,0.3041354,0.8615542,0.10026793,-0.15393057,-0.45353594
1715849113.281028,0.017032072,0.3041354,0.8615542,0.10026793,-0.15393057,-0.45353594
1715849113.282258,0.017032072,0.3041354,0.8615542,0.10026793,-0.15393057,-0.45353594
1715849113.283704,0.017032072,0.3041354,0.8615542,0.10026793,-0.15393057,-0.45353594
1715849113.284944,0.017032072,0.3041354,0.8615542,0.10026793,-0.15393057,-0.45353594
1715849113.286152,0.017032072,0.3041354,0.8615542,0.10026793,-0.15393057,-0.45353594
1715849113.288613,0.017032072,0.3041354,0.8615542,0.10026793,-0.15393057,-0.45353594
1715849113.289891,0.017032072,0.3041354,0.8615542,0.10026793,-0.15393057,-0.45353594
1715849113.29112,0.017032072,0.3041354,0.8615542,0.10026793,-0.15393057,-0.45353594
1715849113.292346,0.017032072,0.3041354,0.8615542,0.10026793,-0.15393057,-0.45353594
1715849113.293581,0.017032072,0.3041354,0.8615542,0.10026793,-0.15393057,-0.45353594
1715849113.294812,0.017032072,0.3041354,0.8615542,0.10026793,-0.15393057,-0.45353594
1715849113.296052,0.017032072,0.3041354,0.8615542,0.10026793,-0.15393057,-0.45353594
1715849113.297282,0.017032072,0.3041354,0.8615542,0.10026793,-0.15393057,-0.45353594
1715849113.298512,0.017032072,0.3041354,0.8615542,0.10026793,-0.15393057,-0.45353594
1715849113.299721,0.017032072,0.3041354,0.8615542,0.10026793,-0.15393057,-0.45353594
1715849113.300952,0.017032072,0.3041354,0.8615542,0.10026793,-0.15393057,-0.45353594
1715849113.302183,0.017032072,0.3041354,0.8615542,0.10026793,-0.15393057,-0.45353594
1715849113.303414,0.017032072,0.3041354,0.8615542,0.10026793,-0.15393057,-0.45353594
1715849113.304593,-0.015200666,0.30511215,0.8373797,0.10026793,-0.15393057,-0.45353594
1715849113.305819,-0.015200666,0.30511215,0.8373797,0.10026793,-0.15393057,-0.45353594
1715849113.307085,-0.015200666,0.30511215,0.8373797,0.23129535,-0.021837901,-0.5163865
1715849113.308293,-0.093340635,0.28179225,0.7370797,0.42197752,0.07510108,-0.498277
1715849113.309465,-0.093340635,0.28179225,0.7370797,0.42197752,0.07510108,-0.498277
1715849113.310637,-0.09675926,0.28228062,0.69691086,0.44115224,0.019707374,-0.4727107
1715849113.311864,-0.09675926,0.28228062,0.69691086,0.44115224,0.019707374,-0.4727107
1715849113.313024,-0.09675926,0.28228062,0.69691086,0.44115224,0.019707374,-0.4727107
1715849113.314257,-0.09675926,0.28228062,0.69691086,0.44115224,0.019707374,-0.4727107
1715849113.315427,-0.09675926,0.28228062,0.69691086,0.44115224,0.019707374,-0.4727107
1715849113.316947,-0.09480576,0.3021819,0.6353756,0.40919435,-0.2061285,-0.44714436
1715849113.318178,-0.09480576,0.3021819,0.6353756,0.40919435,-0.2061285,-0.44714436
1715849113.31939,-0.09480576,0.3021819,0.6353756,0.40919435,-0.2061285,-0.44714436
1715849113.320617,-0.09480576,0.3021819,0.6353756,0.40919435,-0.2061285,-0.44714436
1715849113.321847,-0.09480576,0.3021819,0.6353756,0.40919435,-0.2061285,-0.44714436
1715849113.323076,-0.09480576,0.3021819,0.6353756,0.40919435,-0.2061285,-0.44714436
1715849113.324308,-0.09480576,0.3021819,0.6353756,0.40919435,-0.2061285,-0.44714436
1715849113.325537,-0.09480576,0.3021819,0.6353756,0.40919435,-0.2061285,-0.44714436
1715849113.326768,-0.09480576,0.3021819,0.6353756,0.40919435,-0.2061285,-0.44714436
1715849113.328988,-0.092852265,0.30267027,0.6896463,0.38256276,-0.422377,-0.4492749
1715849113.330169,-0.092852265,0.30267027,0.6896463,0.38256276,-0.422377,-0.4492749
1715849113.331396,-0.092852265,0.30267027,0.6896463,0.38256276,-0.422377,-0.4492749
1715849113.332619,-0.092852265,0.30267027,0.6896463,0.38256276,-0.422377,-0.4492749
1715849113.333808,-0.092852265,0.30267027,0.6896463,0.38256276,-0.422377,-0.4492749
1715849113.334972,-0.092852265,0.30267027,0.6896463,0.38256276,-0.422377,-0.4492749
1715849113.33621,-0.092852265,0.30267027,0.6896463,0.44115224,-0.5331644,-0.4961465
1715849113.337433,-0.046945028,0.29052198,0.737568,0.44115224,-0.5331644,-0.4961465
1715849113.338653,-0.046945028,0.29052198,0.737568,0.44115224,-0.5331644,-0.4961465
1715849113.339866,-0.046945028,0.29052198,0.737568,0.44115224,-0.5331644,-0.4961465
1715849113.34109,-0.046945028,0.29052198,0.737568,0.44115224,-0.5331644,-0.4961465
1715849113.342307,-0.046945028,0.29052198,0.737568,0.44115224,-0.5331644,-0.4961465
1715849113.343472,-0.046945028,0.29052198,0.737568,0.44115224,-0.5331644,-0.4961465
1715849113.344644,-0.046945028,0.29052198,0.737568,0.44115224,-0.5331644,-0.4961465
1715849113.346088,-0.046945028,0.29052198,0.737568,0.44115224,-0.5331644,-0.4961465
1715849113.347303,-0.035162985,0.2871644,0.7748677,0.5082639,-0.51931596,-0.56112754
1715849113.348509,-0.035162985,0.2871644,0.7748677,0.5082639,-0.51931596,-0.56112754
1715849113.349698,-0.035162985,0.2871644,0.7748677,0.5082639,-0.51931596,-0.56112754
1715849113.35093,-0.035162985,0.2871644,0.7748677,0.5082639,-0.51931596,-0.56112754
1715849113.352184,-0.035162985,0.2871644,0.7748677,0.5082639,-0.51931596,-0.56112754
1715849113.353407,-0.035162985,0.2871644,0.7748677,0.5082639,-0.51931596,-0.56112754
1715849113.354627,-0.035162985,0.2871644,0.7748677,0.5082639,-0.51931596,-0.56112754
1715849113.355873,-0.035162985,0.2871644,0.7748677,0.5082639,-0.51931596,-0.56112754
1715849113.357103,-0.035162985,0.2871644,0.7748677,0.5082639,-0.51931596,-0.56112754
1715849113.358328,-0.035162985,0.2871644,0.7748677,0.5082639,-0.51931596,-0.56112754
1715849113.359512,-0.035162985,0.2871644,0.7748677,0.5082639,-0.51931596,-0.56112754
1715849113.360694,-0.035162985,0.2871644,0.7748677,0.5444828,-0.5012065,-0.5941507
1715849113.361866,-0.035162985,0.2871644,0.7748677,0.5444828,-0.5012065,-0.5941507
1715849113.363093,-0.035162985,0.2871644,0.7748677,0.5444828,-0.5012065,-0.5941507
1715849113.364322,-0.035162985,0.2871644,0.7748677,0.5444828,-0.5012065,-0.5941507
1715849113.365555,-0.035162985,0.2871644,0.7748677,0.5444828,-0.5012065,-0.5941507
1715849113.366805,-0.035162985,0.2871644,0.7748677,0.5444828,-0.5012065,-0.5941507
1715849113.368043,-0.035162985,0.2871644,0.7748677,0.5444828,-0.5012065,-0.5941507
1715849113.369239,-0.035162985,0.2871644,0.7748677,0.5444828,-0.5012065,-0.5941507
1715849113.370465,-0.035162985,0.2871644,0.7748677,0.5444828,-0.5012065,-0.5941507
1715849113.371668,-0.035162985,0.2871644,0.7748677,0.5444828,-0.5012065,-0.5941507
1715849113.372891,-0.035162985,0.2871644,0.7748677,0.5444828,-0.5012065,-0.5941507
1715849113.374111,-0.035162985,0.2871644,0.7748677,0.5444828,-0.5012065,-0.5941507
1715849113.375347,-0.035162985,0.2871644,0.7748677,0.5444828,-0.5012065,-0.5941507
1715849113.376566,-0.035162985,0.2871644,0.7748677,0.5444828,-0.5012065,-0.5941507
1715849113.377785,-0.035162985,0.2871644,0.7748677,0.5444828,-0.5012065,-0.5941507
1715849113.379005,-0.035162985,0.2871644,0.7748677,0.5444828,-0.5012065,-0.5941507
1715849113.380224,-0.035162985,0.2871644,0.7748677,0.5444828,-0.5012065,-0.5941507
1715849113.381396,-0.035162985,0.2871644,0.7748677,0.5444828,-0.5012065,-0.5941507
1715849113.382623,-0.035162985,0.2871644,0.7748677,0.5444828,-0.5012065,-0.5941507
1715849113.383857,-0.035162985,0.2871644,0.7748677,0.5444828,-0.5012065,-0.5941507
1715849113.385082,-0.035162985,0.2871644,0.7748677,0.5444828,-0.5012065,-0.5941507
1715849113.386319,-0.035162985,0.2871644,0.7748677,0.5444828,-0.5012065,-0.5941507
1715849113.387486,-0.035162985,0.2871644,0.7748677,0.5444828,-0.5012065,-0.5941507
1715849113.388709,-0.035162985,0.2871644,0.7748677,0.5444828,-0.5012065,-0.5941507
1715849113.389941,-0.035162985,0.2871644,0.7748677,0.5444828,-0.5012065,-0.5941507
1715849113.391164,-0.035162985,0.2871644,0.7748677,0.5444828,-0.5012065,-0.5941507
1715849113.392551,0.07612542,0.3201297,0.858685,0.65420496,-0.14540847,-0.813595
1715849113.393748,0.07612542,0.3201297,0.858685,0.65420496,-0.14540847,-0.813595
1715849113.394918,0.050729934,0.3424118,0.8407373,0.6147902,0.026098955,-0.8785761
1715849113.396142,0.050729934,0.3424118,0.8407373,0.6147902,0.026098955,-0.8785761
1715849113.397404,0.03412519,0.3264175,0.8073446,0.39215013,0.05166528,-0.9542098
1715849113.399369,0.03412519,0.3264175,0.8073446,0.39215013,0.05166528,-0.9542098
1715849113.400561,0.03412519,0.3264175,0.8073446,0.39215013,0.05166528,-0.9542098
1715849113.401742,0.03412519,0.3264175,0.8073446,0.39215013,0.05166528,-0.9542098
1715849113.402922,0.03412519,0.3264175,0.8073446,0.39215013,0.05166528,-0.9542098
1715849113.404169,0.03412519,0.3264175,0.8073446,0.39215013,0.05166528,-0.9542098
1715849113.405324,0.03412519,0.3264175,0.8073446,0.39215013,0.05166528,-0.9542098
1715849113.406553,0.03412519,0.3264175,0.8073446,0.39215013,0.05166528,-0.9542098
1715849113.407784,0.03412519,0.3264175,0.8073446,0.39215013,0.05166528,-0.9542098
1715849113.409024,-0.10255871,0.48642132,0.95361286,0.10346372,-0.13795163,-0.971254
1715849113.410246,-0.10255871,0.48642132,0.95361286,0.10346372,-0.13795163,-0.971254
1715849113.411427,-0.10255871,0.48642132,0.95361286,0.10346372,-0.13795163,-0.971254
1715849113.412706,-0.10255871,0.48642132,0.95361286,0.10346372,-0.13795163,-0.971254
1715849113.413965,-0.10255871,0.48642132,0.95361286,0.10346372,-0.13795163,-0.971254
1715849113.415185,-0.10255871,0.48642132,0.95361286,0.10346372,-0.13795163,-0.971254
1715849113.416525,-0.10255871,0.48642132,0.95361286,0.10346372,-0.13795163,-0.971254
1715849113.4177,-0.053721227,0.67945147,1.4040776,-0.049934227,-0.6695181,-0.773115
1715849113.418919,-0.053721227,0.67945147,1.4040776,-0.049934227,-0.6695181,-0.773115
1715849113.420137,-0.053721227,0.67945147,1.4040776,-0.049934227,-0.6695181,-0.773115
1715849113.421357,-0.053721227,0.67945147,1.4040776,-0.049934227,-0.6695181,-0.773115
1715849113.422574,-0.053721227,0.67945147,1.4040776,-0.049934227,-0.6695181,-0.773115
1715849113.423796,-0.053721227,0.67945147,1.4040776,-0.049934227,-0.6695181,-0.773115
1715849113.425063,-0.053721227,0.67945147,1.4040776,-0.049934227,-0.6695181,-0.773115
1715849113.426302,-0.053721227,0.67945147,1.4040776,-0.049934227,-0.6695181,-0.773115
1715849113.427466,-0.053721227,0.67945147,1.4040776,-0.07976161,-1.2490215,-0.615456
1715849113.428705,0.103474416,0.70026845,1.5871571,-0.07976161,-1.2490215,-0.615456
1715849113.429909,0.103474416,0.70026845,1.5871571,-0.07976161,-1.2490215,-0.615456
1715849113.43114,0.103474416,0.70026845,1.5871571,-0.07976161,-1.2490215,-0.615456
1715849113.432363,0.103474416,0.70026845,1.5871571,-0.07976161,-1.2490215,-0.615456
1715849113.433586,0.103474416,0.70026845,1.5871571,-0.07976161,-1.2490215,-0.615456
1715849113.434817,0.103474416,0.70026845,1.5871571,-0.07976161,-1.2490215,-0.615456
1715849113.436013,0.103474416,0.70026845,1.5871571,-0.07976161,-1.2490215,-0.615456
1715849113.43718,0.27580968,0.64648616,1.6118201,-0.07976161,-1.2490215,-0.615456
1715849113.438408,0.27580968,0.64648616,1.6118201,0.069375284,-1.6261247,-0.5664539
1715849113.439614,0.27580968,0.64648616,1.6118201,0.069375284,-1.6261247,-0.5664539
1715849113.440845,0.27580968,0.64648616,1.6118201,0.069375284,-1.6261247,-0.5664539
1715849113.442075,0.27580968,0.64648616,1.6118201,0.069375284,-1.6261247,-0.5664539
1715849113.44332,0.27580968,0.64648616,1.6118201,0.069375284,-1.6261247,-0.5664539
1715849113.444548,0.27580968,0.64648616,1.6118201,0.069375284,-1.6261247,-0.5664539
1715849113.445778,0.27580968,0.64648616,1.6118201,0.069375284,-1.6261247,-0.5664539
1715849113.447007,0.27580968,0.64648616,1.6118201,0.069375284,-1.6261247,-0.5664539
1715849113.448175,0.4354472,0.6217011,1.781347,0.069375284,-1.6261247,-0.5664539
1715849113.449381,0.4354472,0.6217011,1.781347,0.3868238,-0.7866971,-0.7443529
1715849113.450612,0.4354472,0.6217011,1.781347,0.3868238,-0.7866971,-0.7443529
1715849113.451824,0.4354472,0.6217011,1.781347,0.3868238,-0.7866971,-0.7443529
1715849113.45308,0.4354472,0.6217011,1.781347,0.3868238,-0.7866971,-0.7443529
1715849113.454259,0.4354472,0.6217011,1.781347,0.3868238,-0.7866971,-0.7443529
1715849113.455436,0.4354472,0.6217011,1.781347,0.3868238,-0.7866971,-0.7443529
1715849113.456665,0.4354472,0.6217011,1.781347,0.3868238,-0.7866971,-0.7443529
1715849113.457892,0.4354472,0.6217011,1.781347,0.3868238,-0.7866971,-0.7443529
1715849113.459129,0.4354472,0.6217011,1.781347,0.3868238,-0.7866971,-0.7443529
1715849113.460351,0.4354472,0.6217011,1.781347,0.3868238,-0.7866971,-0.7443529
1715849113.461591,0.4354472,0.6217011,1.781347,0.3868238,-0.7866971,-0.7443529
1715849113.462818,0.4354472,0.6217011,1.781347,0.3868238,-0.7866971,-0.7443529
1715849113.464052,0.4354472,0.6217011,1.781347,0.3868238,-0.7866971,-0.7443529
1715849113.465275,0.4354472,0.6217011,1.781347,0.3868238,-0.7866971,-0.7443529
1715849113.466475,0.4354472,0.6217011,1.781347,0.3868238,-0.7866971,-0.7443529
1715849113.467683,0.4354472,0.6217011,1.781347,0.3868238,-0.7866971,-0.7443529
1715849113.468913,0.4354472,0.6217011,1.781347,0.3868238,-0.7866971,-0.7443529
1715849113.470144,0.4354472,0.6217011,1.781347,0.3868238,-0.7866971,-0.7443529
1715849113.471391,0.4354472,0.6217011,1.781347,0.3868238,-0.7866971,-0.7443529
1715849113.472636,0.4354472,0.6217011,1.781347,0.3868238,-0.7866971,-0.7443529
1715849113.473864,0.4354472,0.6217011,1.781347,0.3868238,-0.7866971,-0.7443529
1715849113.475093,0.4354472,0.6217011,1.781347,0.3868238,-0.7866971,-0.7443529
1715849113.476324,0.4354472,0.6217011,1.781347,0.3868238,-0.7866971,-0.7443529
1715849113.477553,0.4354472,0.6217011,1.781347,0.3868238,-0.7866971,-0.7443529
1715849113.478782,0.4354472,0.6217011,1.781347,0.3868238,-0.7866971,-0.7443529
1715849113.480013,0.4354472,0.6217011,1.781347,0.3868238,-0.7866971,-0.7443529
1715849113.481244,0.4354472,0.6217011,1.781347,0.3868238,-0.7866971,-0.7443529
1715849113.482693,0.558945,0.67603284,2.1707652,0.8747145,-0.25513062,-1.3579447
1715849113.483922,0.6550938,0.62463135,2.2341926,1.0025462,0.101732664,-1.633848
1715849113.485098,0.6550938,0.62463135,2.2341926,1.0025462,0.101732664,-1.633848
1715849113.486279,0.6550938,0.62463135,2.2341926,1.0025462,0.101732664,-1.633848
1715849113.487449,0.80935913,0.5887358,2.238588,1.1452914,0.38828856,-1.8469006
1715849113.48868,0.80935913,0.5887358,2.238588,1.1452914,0.38828856,-1.8469006
1715849113.48994,0.80935913,0.5887358,2.238588,1.1452914,0.38828856,-1.8469006
1715849113.491168,0.80935913,0.5887358,2.238588,1.1452914,0.38828856,-1.8469006
1715849113.492398,0.80935913,0.5887358,2.238588,1.1452914,0.38828856,-1.8469006
1715849113.493629,0.80935913,0.5887358,2.238588,1.1452914,0.38828856,-1.8469006
1715849113.494854,0.80935913,0.5887358,2.238588,1.1452914,0.38828856,-1.8469006
1715849113.496086,0.80935913,0.5887358,2.238588,1.1452914,0.38828856,-1.8469006
1715849113.497318,0.80935913,0.5887358,2.238588,1.2965589,0.72597706,-2.2112207
1715849113.498548,0.73323375,0.645021,2.202265,1.2965589,0.72597706,-2.2112207
1715849113.499776,0.73323375,0.645021,2.202265,1.2965589,0.72597706,-2.2112207
1715849113.501006,0.73323375,0.645021,2.202265,1.2965589,0.72597706,-2.2112207
1715849113.502234,0.73323375,0.645021,2.202265,1.2965589,0.72597706,-2.2112207
1715849113.503393,0.73323375,0.645021,2.202265,1.2965589,0.72597706,-2.2112207
1715849113.50462,0.73323375,0.645021,2.202265,1.2965589,0.72597706,-2.2112207
1715849113.505799,0.73323375,0.645021,2.202265,1.2965589,0.72597706,-2.2112207
1715849113.507027,0.73323375,0.645021,2.202265,1.2965589,0.72597706,-2.2112207
1715849113.508304,0.73323375,0.645021,2.202265,1.2965589,0.72597706,-2.2112207
1715849113.509578,0.73323375,0.645021,2.202265,1.2965589,0.72597706,-2.2112207
1715849113.510799,0.12691641,0.9185109,2.787338,1.325321,0.006924213,-2.4359913
1715849113.512015,0.12691641,0.9185109,2.787338,1.325321,0.006924213,-2.4359913
1715849113.513235,0.12691641,0.9185109,2.787338,1.325321,0.006924213,-2.4359913
1715849113.51446,0.12691641,0.9185109,2.787338,1.325321,0.006924213,-2.4359913
1715849113.515637,0.12691641,0.9185109,2.787338,1.325321,0.006924213,-2.4359913
1715849113.516864,0.12691641,0.9185109,2.787338,1.325321,0.006924213,-2.4359913
1715849113.518092,-0.09468366,1.3189783,2.5872877,1.4680663,-1.7827185,-2.3987072
1715849113.519329,-0.09468366,1.3189783,2.5872877,1.4680663,-1.7827185,-2.3987072
1715849113.52055,-0.09468366,1.3189783,2.5872877,1.4680663,-1.7827185,-2.3987072
1715849113.521773,-0.09468366,1.3189783,2.5872877,1.4680663,-1.7827185,-2.3987072
1715849113.523005,-0.09468366,1.3189783,2.5872877,1.4680663,-1.7827185,-2.3987072
1715849113.524224,-0.09468366,1.3189783,2.5872877,1.4680663,-1.7827185,-2.3987072
1715849113.525428,-0.09468366,1.3189783,2.5872877,1.4680663,-1.7827185,-2.3987072
1715849113.526804,-0.09468366,1.3189783,2.5872877,1.6054853,-2.774479,-2.830139
1715849113.528038,-0.26067004,1.1774106,2.55243,1.6054853,-2.774479,-2.830139
1715849113.529268,-0.26067004,1.1774106,2.55243,1.6054853,-2.774479,-2.830139
1715849113.5305,-0.26067004,1.1774106,2.55243,1.6054853,-2.774479,-2.830139
1715849113.531709,-0.26067004,1.1774106,2.55243,1.6054853,-2.774479,-2.830139
1715849113.532936,-0.26067004,1.1774106,2.55243,1.6054853,-2.774479,-2.830139
1715849113.534165,-0.26067004,1.1774106,2.55243,1.6054853,-2.774479,-2.830139
1715849113.535397,-0.26067004,1.1774106,2.55243,1.6054853,-2.774479,-2.830139
1715849113.536623,-0.48910737,1.0324243,2.7403321,1.6054853,-2.774479,-2.830139
1715849113.537849,-0.48910737,1.0324243,2.7403321,1.9101506,-3.1206894,-3.0240169
1715849113.539068,-0.48910737,1.0324243,2.7403321,1.9101506,-3.1206894,-3.0240169
1715849113.540286,-0.48910737,1.0324243,2.7403321,1.9101506,-3.1206894,-3.0240169
1715849113.541506,-0.48910737,1.0324243,2.7403321,1.9101506,-3.1206894,-3.0240169
1715849113.542747,-0.48910737,1.0324243,2.7403321,1.9101506,-3.1206894,-3.0240169
1715849113.543995,-0.48910737,1.0324243,2.7403321,1.9101506,-3.1206894,-3.0240169
1715849113.545185,-0.48910737,1.0324243,2.7403321,1.9101506,-3.1206894,-3.0240169
1715849113.546413,-0.48910737,1.0324243,2.7403321,1.9101506,-3.1206894,-3.0240169
1715849113.547625,-0.48910737,1.0324243,2.7403321,1.9101506,-3.1206894,-3.0240169
1715849113.548882,-0.48910737,1.0324243,2.7403321,1.9101506,-3.1206894,-3.0240169
1715849113.550124,-0.48910737,1.0324243,2.7403321,1.9101506,-3.1206894,-3.0240169
1715849113.551374,-0.48910737,1.0324243,2.7403321,1.9101506,-3.1206894,-3.0240169
1715849113.552595,-0.48910737,1.0324243,2.7403321,1.9101506,-3.1206894,-3.0240169
1715849113.553815,-0.48910737,1.0324243,2.7403321,1.9101506,-3.1206894,-3.0240169
1715849113.554983,-0.48910737,1.0324243,2.7403321,1.9101506,-3.1206894,-3.0240169
1715849113.556144,-0.48910737,1.0324243,2.7403321,1.9101506,-3.1206894,-3.0240169
1715849113.557364,-0.48910737,1.0324243,2.7403321,1.9101506,-3.1206894,-3.0240169
1715849113.558585,-0.48910737,1.0324243,2.7403321,1.9101506,-3.1206894,-3.0240169
1715849113.559804,-0.48910737,1.0324243,2.7403321,1.9101506,-3.1206894,-3.0240169
1715849113.561022,-0.48910737,1.0324243,2.7403321,1.9101506,-3.1206894,-3.0240169
1715849113.562182,-0.48910737,1.0324243,2.7403321,1.9101506,-3.1206894,-3.0240169
1715849113.563352,-0.48910737,1.0324243,2.7403321,1.9101506,-3.1206894,-3.0240169
1715849113.564589,-0.48910737,1.0324243,2.7403321,1.9101506,-3.1206894,-3.0240169
1715849113.565774,-0.48910737,1.0324243,2.7403321,1.9101506,-3.1206894,-3.0240169
1715849113.566989,-0.48910737,1.0324243,2.7403321,1.9101506,-3.1206894,-3.0240169
1715849113.568223,-0.48910737,1.0324243,2.7403321,1.9101506,-3.1206894,-3.0240169
1715849113.569451,-0.48910737,1.0324243,2.7403321,1.9101506,-3.1206894,-3.0240169
1715849113.570686,-0.48910737,1.0324243,2.7403321,1.9101506,-3.1206894,-3.0240169
1715849113.571915,-0.48910737,1.0324243,2.7403321,1.9101506,-3.1206894,-3.0240169
1715849113.57315,-0.60882026,1.094509,2.6037703,2.781536,-3.0652957,-2.171806
1715849113.574379,-0.60882026,1.094509,2.6037703,2.781536,-3.0652957,-2.171806
1715849113.575604,-0.60882026,1.094509,2.6037703,2.781536,-3.0652957,-2.171806
1715849113.576853,-0.60882026,1.094509,2.6037703,2.9157593,-2.8000453,-2.054627
1715849113.578082,-0.6434949,1.1017736,2.6991866,2.9157593,-2.8000453,-2.054627
1715849113.57933,-0.6434949,1.1017736,2.6991866,2.9157593,-2.8000453,-2.054627
1715849113.580557,-0.6434949,1.1017736,2.6991866,2.9157593,-2.8000453,-2.054627
1715849113.581821,-0.6434949,1.1017736,2.6991866,2.9157593,-2.8000453,-2.054627
1715849113.583422,-0.6434949,1.1017736,2.6991866,2.9157593,-2.8000453,-2.054627
1715849113.584674,-0.6434949,1.1017736,2.6991866,2.9157593,-2.8000453,-2.054627
1715849113.585884,-0.6434949,1.1017736,2.6991866,2.9157593,-2.8000453,-2.054627
1715849113.587262,-0.6151691,1.0338894,2.8129778,3.273688,-2.820285,-1.58165
1715849113.588476,-0.6151691,1.0338894,2.8129778,3.273688,-2.820285,-1.58165
1715849113.589747,-0.6151691,1.0338894,2.8129778,3.273688,-2.820285,-1.58165
1715849113.591007,-0.6151691,1.0338894,2.8129778,3.273688,-2.820285,-1.58165
1715849113.592218,-0.6151691,1.0338894,2.8129778,3.273688,-2.820285,-1.58165
1715849113.593431,-0.6151691,1.0338894,2.8129778,3.273688,-2.820285,-1.58165
1715849113.594643,-0.6151691,1.0338894,2.8129778,3.273688,-2.820285,-1.58165
1715849113.595805,-0.6151691,1.0338894,2.8129778,3.273688,-2.820285,-1.58165
1715849113.597216,-0.6151691,1.0338894,2.8129778,3.613507,-2.8213503,-1.3174647
1715849113.598549,-0.61077374,1.0949973,2.9074173,3.613507,-2.8213503,-1.3174647
1715849113.599769,-0.61077374,1.0949973,2.9074173,3.613507,-2.8213503,-1.3174647
1715849113.60099,-0.61077374,1.0949973,2.9074173,3.613507,-2.8213503,-1.3174647
1715849113.602213,-0.61077374,1.0949973,2.9074173,3.613507,-2.8213503,-1.3174647
1715849113.603382,-0.61077374,1.0949973,2.9074173,3.613507,-2.8213503,-1.3174647
1715849113.604621,-0.61077374,1.0949973,2.9074173,3.613507,-2.8213503,-1.3174647
1715849113.605839,-0.61077374,1.0949973,2.9074173,3.613507,-2.8213503,-1.3174647
1715849113.607043,-0.61077374,1.0949973,2.9074173,3.613507,-2.8213503,-1.3174647
1715849113.608294,-0.61077374,1.0949973,2.9074173,3.613507,-2.8213503,-1.3174647
1715849113.609434,-0.61077374,1.0949973,2.9074173,3.613507,-2.8213503,-1.3174647
1715849113.610722,-0.6288436,1.0741193,2.9796357,3.973566,-3.0194895,-1.047953
1715849113.61223,-0.6288436,1.0741193,2.9796357,3.973566,-3.0194895,-1.047953
1715849113.613449,-0.6288436,1.0741193,2.9796357,3.973566,-3.0194895,-1.047953
1715849113.614674,-0.6288436,1.0741193,2.9796357,3.973566,-3.0194895,-1.047953
1715849113.615897,-0.6288436,1.0741193,2.9796357,3.973566,-3.0194895,-1.047953
1715849113.617098,-0.5268343,1.0271133,2.8730478,3.973566,-3.0194895,-1.047953
1715849113.618318,-0.5268343,1.0271133,2.8730478,4.7469473,-3.5787528,-0.86259717
1715849113.619625,-0.5268343,1.0271133,2.8730478,4.7469473,-3.5787528,-0.86259717
1715849113.620855,-0.5268343,1.0271133,2.8730478,4.7469473,-3.5787528,-0.86259717
1715849113.622094,-0.5268343,1.0271133,2.8730478,4.7469473,-3.5787528,-0.86259717
1715849113.623351,-0.5268343,1.0271133,2.8730478,4.7469473,-3.5787528,-0.86259717
1715849113.624578,-0.5268343,1.0271133,2.8730478,4.7469473,-3.5787528,-0.86259717
1715849113.625788,-0.5268343,1.0271133,2.8730478,4.7469473,-3.5787528,-0.86259717
1715849113.626995,-0.5268343,1.0271133,2.8730478,4.7469473,-3.5787528,-0.86259717
1715849113.628301,-0.5268343,1.0271133,2.8730478,4.7469473,-3.5787528,-0.86259717
1715849113.629485,-0.47317415,0.9732699,2.8396552,5.0409603,-3.7864792,-0.9254477
1715849113.630711,-0.47317415,0.9732699,2.8396552,5.0409603,-3.7864792,-0.9254477
1715849113.631947,-0.47317415,0.9732699,2.8396552,5.0409603,-3.7864792,-0.9254477
1715849113.63312,-0.47317415,0.9732699,2.8396552,5.0409603,-3.7864792,-0.9254477
1715849113.634373,-0.47317415,0.9732699,2.8396552,5.0409603,-3.7864792,-0.9254477
1715849113.635552,-0.47317415,0.9732699,2.8396552,5.0409603,-3.7864792,-0.9254477
1715849113.636727,-0.47317415,0.9732699,2.8396552,5.0409603,-3.7864792,-0.9254477
1715849113.637958,-0.47317415,0.9732699,2.8396552,5.0409603,-3.7864792,-0.9254477
1715849113.639185,-0.47317415,0.9732699,2.8396552,5.0409603,-3.7864792,-0.9254477
1715849113.640415,-0.47317415,0.9732699,2.8396552,5.0409603,-3.7864792,-0.9254477
1715849113.641642,-0.47317415,0.9732699,2.8396552,5.0409603,-3.7864792,-0.9254477
1715849113.642871,-0.47317415,0.9732699,2.8396552,5.0409603,-3.7864792,-0.9254477
1715849113.6441,-0.47317415,0.9732699,2.8396552,5.0409603,-3.7864792,-0.9254477
1715849113.645329,-0.47317415,0.9732699,2.8396552,5.0409603,-3.7864792,-0.9254477
1715849113.646557,-0.47317415,0.9732699,2.8396552,5.0409603,-3.7864792,-0.9254477
1715849113.647759,-0.47317415,0.9732699,2.8396552,5.0409603,-3.7864792,-0.9254477
1715849113.64894,-0.47317415,0.9732699,2.8396552,5.0409603,-3.7864792,-0.9254477
1715849113.650204,-0.47317415,0.9732699,2.8396552,5.0409603,-3.7864792,-0.9254477
1715849113.65139,-0.47317415,0.9732699,2.8396552,5.0409603,-3.7864792,-0.9254477
1715849113.652618,-0.47317415,0.9732699,2.8396552,5.0409603,-3.7864792,-0.9254477
1715849113.654314,-0.47317415,0.9732699,2.8396552,5.0409603,-3.7864792,-0.9254477
1715849113.6555,-0.47317415,0.9732699,2.8396552,5.0409603,-3.7864792,-0.9254477
1715849113.656718,-0.47317415,0.9732699,2.8396552,5.0409603,-3.7864792,-0.9254477
1715849113.657946,-0.47317415,0.9732699,2.8396552,5.0409603,-3.7864792,-0.9254477
1715849113.65916,-0.47317415,0.9732699,2.8396552,5.0409603,-3.7864792,-0.9254477
1715849113.66038,-0.47317415,0.9732699,2.8396552,5.0409603,-3.7864792,-0.9254477
1715849113.66161,-0.47317415,0.9732699,2.8396552,5.0409603,-3.7864792,-0.9254477
1715849113.662953,-0.290583,0.4776916,2.3068383,6.7443166,-3.8280244,-1.6370437
1715849113.664173,-0.290583,0.4776916,2.3068383,6.7443166,-3.8280244,-1.6370437
1715849113.66535,-0.290583,0.4776916,2.3068383,6.7443166,-3.8280244,-1.6370437
1715849113.666536,-0.18173647,0.20420171,2.204646,7.2662954,-3.728955,-1.9257301
1715849113.667756,-0.18173647,0.20420171,2.204646,7.2662954,-3.728955,-1.9257301
1715849113.668972,-0.18173647,0.20420171,2.204646,7.2662954,-3.728955,-1.9257301
1715849113.670203,-0.18173647,0.20420171,2.204646,7.2662954,-3.728955,-1.9257301
1715849113.67143,-0.18173647,0.20420171,2.204646,7.2662954,-3.728955,-1.9257301
1715849113.672657,-0.18173647,0.20420171,2.204646,7.2662954,-3.728955,-1.9257301
1715849113.673897,-0.18173647,0.20420171,2.204646,7.2662954,-3.728955,-1.9257301
1715849113.67516,-0.18173647,0.20420171,2.204646,7.2662954,-3.728955,-1.9257301
1715849113.67638,-0.18173647,0.20420171,2.204646,7.2662954,-3.728955,-1.9257301
1715849113.677566,-0.18173647,0.20420171,2.204646,7.2662954,-3.728955,-1.9257301
1715849113.679011,-0.094378434,-0.0003662811,2.0646656,7.514502,-3.704454,-2.0940418
1715849113.680238,-0.094378434,-0.0003662811,2.0646656,7.514502,-3.704454,-2.0940418
1715849113.68143,-0.094378434,-0.0003662811,2.0646656,7.514502,-3.704454,-2.0940418
1715849113.682609,-0.094378434,-0.0003662811,2.0646656,7.514502,-3.704454,-2.0940418
1715849113.683778,-0.094378434,-0.0003662811,2.0646656,7.514502,-3.704454,-2.0940418
1715849113.684998,-0.094378434,-0.0003662811,2.0646656,7.514502,-3.704454,-2.0940418
1715849113.686629,-0.094378434,-0.0003662811,2.0646656,8.014111,-3.6245592,-2.6841977
1715849113.687853,-0.094378434,-0.0003662811,2.0646656,8.014111,-3.6245592,-2.6841977
1715849113.689112,-0.011354714,-0.3654875,1.843798,8.014111,-3.6245592,-2.6841977
1715849113.690345,-0.011354714,-0.3654875,1.843798,8.014111,-3.6245592,-2.6841977
1715849113.691525,-0.011354714,-0.3654875,1.843798,8.014111,-3.6245592,-2.6841977
1715849113.692757,-0.011354714,-0.3654875,1.843798,8.014111,-3.6245592,-2.6841977
1715849113.69399,-0.011354714,-0.3654875,1.843798,8.014111,-3.6245592,-2.6841977
1715849113.695234,-0.011354714,-0.3654875,1.843798,8.014111,-3.6245592,-2.6841977
1715849113.696459,-0.011354714,-0.3654875,1.843798,8.014111,-3.6245592,-2.6841977
1715849113.697615,0.07600333,-0.6481955,1.7958761,8.233555,-3.5329466,-3.1156294
1715849113.698835,0.07600333,-0.6481955,1.7958761,8.233555,-3.5329466,-3.1156294
1715849113.700068,0.07600333,-0.6481955,1.7958761,8.233555,-3.5329466,-3.1156294
1715849113.701295,0.07600333,-0.6481955,1.7958761,8.233555,-3.5329466,-3.1156294
1715849113.702515,0.07600333,-0.6481955,1.7958761,8.233555,-3.5329466,-3.1156294
1715849113.703712,0.07600333,-0.6481955,1.7958761,8.233555,-3.5329466,-3.1156294
1715849113.704932,0.07600333,-0.6481955,1.7958761,8.233555,-3.5329466,-3.1156294
1715849113.706109,0.07600333,-0.6481955,1.7958761,8.233555,-3.5329466,-3.1156294
1715849113.707372,0.07600333,-0.6481955,1.7958761,8.233555,-3.5329466,-3.1156294
1715849113.708594,0.07600333,-0.6481955,1.7958761,8.233555,-3.5329466,-3.1156294
1715849113.709795,0.07600333,-0.6481955,1.7958761,8.233555,-3.5329466,-3.1156294
1715849113.711055,0.07600333,-0.6481955,1.7958761,8.460456,-3.3923316,-3.533213
1715849113.712291,0.13656181,-0.90764457,1.7300067,8.460456,-3.3923316,-3.533213
1715849113.713514,0.13656181,-0.90764457,1.7300067,8.460456,-3.3923316,-3.533213
1715849113.714736,0.13656181,-0.90764457,1.7300067,8.460456,-3.3923316,-3.533213
1715849113.716144,0.13656181,-0.90764457,1.7300067,8.460456,-3.3923316,-3.533213
1715849113.71731,0.13656181,-0.90764457,1.7300067,8.460456,-3.3923316,-3.533213
1715849113.718529,0.17801262,-1.1141661,1.5217148,8.594679,-3.2687612,-3.8719666
1715849113.719694,0.17801262,-1.1141661,1.5217148,8.594679,-3.2687612,-3.8719666
1715849113.720915,0.17801262,-1.1141661,1.5217148,8.594679,-3.2687612,-3.8719666
1715849113.722137,0.17801262,-1.1141661,1.5217148,8.594679,-3.2687612,-3.8719666
1715849113.72337,0.17801262,-1.1141661,1.5217148,8.594679,-3.2687612,-3.8719666
1715849113.724588,0.17801262,-1.1141661,1.5217148,8.594679,-3.2687612,-3.8719666
1715849113.725821,0.17801262,-1.1141661,1.5217148,8.594679,-3.2687612,-3.8719666
1715849113.726997,0.17801262,-1.1141661,1.5217148,8.594679,-3.2687612,-3.8719666
1715849113.728155,0.17801262,-1.1141661,1.5217148,8.594679,-3.2687612,-3.8719666
1715849113.729305,0.17801262,-1.1141661,1.5217148,8.594679,-3.2687612,-3.8719666
1715849113.730494,0.17801262,-1.1141661,1.5217148,8.594679,-3.2687612,-3.8719666
1715849113.731709,0.17801262,-1.1141661,1.5217148,8.594679,-3.2687612,-3.8719666
1715849113.732951,0.17801262,-1.1141661,1.5217148,8.594679,-3.2687612,-3.8719666
1715849113.734123,0.17801262,-1.1141661,1.5217148,8.594679,-3.2687612,-3.8719666
1715849113.735363,0.17801262,-1.1141661,1.5217148,8.594679,-3.2687612,-3.8719666
1715849113.736557,0.17801262,-1.1141661,1.5217148,8.594679,-3.2687612,-3.8719666
1715849113.737754,0.17801262,-1.1141661,1.5217148,8.594679,-3.2687612,-3.8719666
1715849113.738948,0.17801262,-1.1141661,1.5217148,8.594679,-3.2687612,-3.8719666
1715849113.740131,0.17801262,-1.1141661,1.5217148,8.594679,-3.2687612,-3.8719666
1715849113.74131,0.17801262,-1.1141661,1.5217148,8.594679,-3.2687612,-3.8719666
1715849113.742535,0.17801262,-1.1141661,1.5217148,8.594679,-3.2687612,-3.8719666
1715849113.743745,0.17801262,-1.1141661,1.5217148,8.594679,-3.2687612,-3.8719666
1715849113.744976,0.17801262,-1.1141661,1.5217148,8.594679,-3.2687612,-3.8719666
1715849113.746207,0.17801262,-1.1141661,1.5217148,8.594679,-3.2687612,-3.8719666
1715849113.747419,0.17801262,-1.1141661,1.5217148,8.594679,-3.2687612,-3.8719666
1715849113.748648,0.17801262,-1.1141661,1.5217148,8.594679,-3.2687612,-3.8719666
1715849113.749892,0.17801262,-1.1141661,1.5217148,8.594679,-3.2687612,-3.8719666
1715849113.751148,0.17801262,-1.1141661,1.5217148,8.594679,-3.2687612,-3.8719666
1715849113.752623,0.23026872,-1.2528646,1.0979276,8.164312,-2.5699482,-4.4376216
1715849113.75384,0.16739047,-1.2378471,1.1269859,7.9001274,-2.3782008,-4.597411
1715849113.755037,0.16739047,-1.2378471,1.1269859,7.9001274,-2.3782008,-4.597411
1715849113.756266,0.16739047,-1.2378471,1.1269859,7.9001274,-2.3782008,-4.597411
1715849113.75767,0.0853435,-1.2252103,1.1264975,7.6338115,-2.2024324,-4.693285
1715849113.758841,0.0853435,-1.2252103,1.1264975,7.6338115,-2.2024324,-4.693285
1715849113.760004,0.0853435,-1.2252103,1.1264975,7.6338115,-2.2024324,-4.693285
1715849113.761216,0.0853435,-1.2252103,1.1264975,7.6338115,-2.2024324,-4.693285
1715849113.76239,0.0853435,-1.2252103,1.1264975,7.6338115,-2.2024324,-4.693285
1715849113.76358,0.0853435,-1.2252103,1.1264975,7.6338115,-2.2024324,-4.693285
1715849113.764803,0.0853435,-1.2252103,1.1264975,7.6338115,-2.2024324,-4.693285
1715849113.766103,0.0853435,-1.2252103,1.1264975,7.6338115,-2.2024324,-4.693285
1715849113.767304,0.03412519,-1.226187,1.0340116,7.4037147,-1.9691396,-4.6325645
1715849113.768525,0.03412519,-1.226187,1.0340116,7.4037147,-1.9691396,-4.6325645
1715849113.769704,0.03412519,-1.226187,1.0340116,7.4037147,-1.9691396,-4.6325645
1715849113.770909,0.03412519,-1.226187,1.0340116,7.4037147,-1.9691396,-4.6325645
1715849113.772135,0.03412519,-1.226187,1.0340116,7.4037147,-1.9691396,-4.6325645
1715849113.773359,0.03412519,-1.226187,1.0340116,7.4037147,-1.9691396,-4.6325645
1715849113.77461,0.03412519,-1.226187,1.0340116,7.4037147,-1.9691396,-4.6325645
1715849113.775851,0.03412519,-1.226187,1.0340116,7.4037147,-1.9691396,-4.6325645
1715849113.777079,0.03412519,-1.226187,1.0340116,7.4037147,-1.9691396,-4.6325645
1715849113.778313,0.03412519,-1.226187,1.0340116,7.4037147,-1.9691396,-4.6325645
1715849113.779611,0.03412519,-1.226187,1.0340116,7.191727,-1.7528912,-4.4663835
1715849113.780836,0.08094812,-1.2189225,0.96716523,7.191727,-1.7528912,-4.4663835
1715849113.782069,0.08094812,-1.2189225,0.96716523,7.191727,-1.7528912,-4.4663835
1715849113.783354,0.08094812,-1.2189225,0.96716523,7.191727,-1.7528912,-4.4663835
1715849113.784585,0.08094812,-1.2189225,0.96716523,7.191727,-1.7528912,-4.4663835
1715849113.785818,0.08094812,-1.2189225,0.96716523,7.191727,-1.7528912,-4.4663835
1715849113.787069,0.08094812,-1.2189225,0.96716523,7.191727,-1.7528912,-4.4663835
1715849113.78828,0.08094812,-1.2189225,0.96716523,7.191727,-1.7528912,-4.4663835
1715849113.789456,0.08094812,-1.2189225,0.96716523,7.191727,-1.7528912,-4.4663835
1715849113.790707,0.08094812,-1.2189225,0.96716523,7.191727,-1.7528912,-4.4663835
1715849113.791889,0.08094812,-1.2189225,0.96716523,6.9744134,-1.6176027,-4.359857
1715849113.793108,0.14639035,-1.1665443,0.84513265,6.9744134,-1.6176027,-4.359857
1715849113.794326,0.14639035,-1.1665443,0.84513265,6.9744134,-1.6176027,-4.359857
1715849113.795495,0.14639035,-1.1665443,0.84513265,6.9744134,-1.6176027,-4.359857
1715849113.796932,0.20401858,-1.1214306,0.73518723,6.7794704,-1.4940321,-4.312986
1715849113.798162,0.20401858,-1.1214306,0.73518723,6.7794704,-1.4940321,-4.312986
1715849113.799388,0.20401858,-1.1214306,0.73518723,6.7794704,-1.4940321,-4.312986
1715849113.800564,0.20401858,-1.1214306,0.73518723,6.7794704,-1.4940321,-4.312986
1715849113.801791,0.20401858,-1.1214306,0.73518723,6.7794704,-1.4940321,-4.312986
1715849113.803027,0.20401858,-1.1214306,0.73518723,6.7794704,-1.4940321,-4.312986
1715849113.80426,0.20401858,-1.1214306,0.73518723,6.7794704,-1.4940321,-4.312986
1715849113.805481,0.20401858,-1.1214306,0.73518723,6.7794704,-1.4940321,-4.312986
1715849113.806704,0.20401858,-1.1214306,0.73518723,6.7794704,-1.4940321,-4.312986
1715849113.807908,0.20401858,-1.1214306,0.73518723,6.7794704,-1.4940321,-4.312986
1715849113.809636,0.26109737,-1.0976834,0.6310413,6.4598913,-1.2170635,-4.3044634
1715849113.810853,0.26109737,-1.0976834,0.6310413,6.4598913,-1.2170635,-4.3044634
1715849113.812108,0.26109737,-1.0976834,0.6310413,6.4598913,-1.2170635,-4.3044634
1715849113.813331,0.26109737,-1.0976834,0.6310413,6.4598913,-1.2170635,-4.3044634
1715849113.814557,0.26109737,-1.0976834,0.6310413,6.4598913,-1.2170635,-4.3044634
1715849113.81571,0.26109737,-1.0976834,0.6310413,6.4598913,-1.2170635,-4.3044634
1715849113.816875,0.26109737,-1.0976834,0.6310413,6.4598913,-1.2170635,-4.3044634
1715849113.818096,0.26109737,-1.0976834,0.6310413,6.4598913,-1.2170635,-4.3044634
1715849113.81961,0.26109737,-1.0976834,0.6310413,6.4598913,-1.2170635,-4.3044634
1715849113.820824,0.26109737,-1.0976834,0.6310413,6.4598913,-1.2170635,-4.3044634
1715849113.822011,0.26109737,-1.0976834,0.6310413,6.4598913,-1.2170635,-4.3044634
1715849113.82325,0.26109737,-1.0976834,0.6310413,6.4598913,-1.2170635,-4.3044634
1715849113.824475,0.26109737,-1.0976834,0.6310413,6.4598913,-1.2170635,-4.3044634
1715849113.825696,0.26109737,-1.0976834,0.6310413,6.4598913,-1.2170635,-4.3044634
1715849113.826878,0.26109737,-1.0976834,0.6310413,6.4598913,-1.2170635,-4.3044634
1715849113.828095,0.26109737,-1.0976834,0.6310413,6.4598913,-1.2170635,-4.3044634
1715849113.829323,0.26109737,-1.0976834,0.6310413,6.4598913,-1.2170635,-4.3044634
1715849113.830502,0.26109737,-1.0976834,0.6310413,6.4598913,-1.2170635,-4.3044634
1715849113.831714,0.26109737,-1.0976834,0.6310413,6.4598913,-1.2170635,-4.3044634
1715849113.832956,0.26109737,-1.0976834,0.6310413,6.4598913,-1.2170635,-4.3044634
1715849113.834132,0.26109737,-1.0976834,0.6310413,6.4598913,-1.2170635,-4.3044634
1715849113.835373,0.26109737,-1.0976834,0.6310413,6.4598913,-1.2170635,-4.3044634
1715849113.8366,0.26109737,-1.0976834,0.6310413,6.4598913,-1.2170635,-4.3044634
1715849113.837829,0.26109737,-1.0976834,0.6310413,6.4598913,-1.2170635,-4.3044634
1715849113.838999,0.26109737,-1.0976834,0.6310413,6.4598913,-1.2170635,-4.3044634
1715849113.840203,0.26109737,-1.0976834,0.6310413,6.4598913,-1.2170635,-4.3044634
1715849113.84159,0.26109737,-1.0976834,0.6310413,6.4598913,-1.2170635,-4.3044634
1715849113.842743,-0.26414973,-0.93719125,0.100666255,5.3296466,-0.71958554,-4.0818233
1715849113.843894,-0.26414973,-0.93719125,0.100666255,5.3296466,-0.71958554,-4.0818233
1715849113.845127,-0.26414973,-0.93719125,0.100666255,5.3296466,-0.71958554,-4.0818233
1715849113.846586,-0.26414973,-0.93719125,0.100666255,5.3296466,-0.71958554,-4.0818233
1715849113.847786,-0.373973,-0.88237125,0.093890056,5.138964,-0.77924025,-3.9412088
1715849113.849003,-0.373973,-0.88237125,0.093890056,5.138964,-0.77924025,-3.9412088
1715849113.850207,-0.373973,-0.88237125,0.093890056,5.138964,-0.77924025,-3.9412088
1715849113.851425,-0.373973,-0.88237125,0.093890056,5.138964,-0.77924025,-3.9412088
1715849113.852647,-0.373973,-0.88237125,0.093890056,5.138964,-0.77924025,-3.9412088
1715849113.853904,-0.373973,-0.88237125,0.093890056,5.138964,-0.77924025,-3.9412088
1715849113.855096,-0.373973,-0.88237125,0.093890056,5.138964,-0.77924025,-3.9412088
1715849113.856316,-0.373973,-0.88237125,0.093890056,5.138964,-0.77924025,-3.9412088
1715849113.857738,-0.6400152,-0.7829869,0.067762,4.740556,-1.0551435,-3.3691623
1715849113.85894,-0.6400152,-0.7829869,0.067762,4.740556,-1.0551435,-3.3691623
1715849113.860164,-0.6400152,-0.7829869,0.067762,4.740556,-1.0551435,-3.3691623
1715849113.861387,-0.6400152,-0.7829869,0.067762,4.740556,-1.0551435,-3.3691623
1715849113.862549,-0.6400152,-0.7829869,0.067762,4.740556,-1.0551435,-3.3691623
1715849113.863767,-0.6400152,-0.7829869,0.067762,4.740556,-1.0551435,-3.3691623
1715849113.865021,-0.6400152,-0.7829869,0.067762,4.740556,-1.0551435,-3.3691623
1715849113.866275,-0.6400152,-0.7829869,0.067762,4.627638,-1.1797794,-3.0112336
1715849113.867438,-0.71907085,-0.7984928,0.010561105,4.627638,-1.1797794,-3.0112336
1715849113.868675,-0.71907085,-0.7984928,0.010561105,4.627638,-1.1797794,-3.0112336
1715849113.869915,-0.71907085,-0.7984928,0.010561105,4.627638,-1.1797794,-3.0112336
1715849113.871127,-0.71907085,-0.7984928,0.010561105,4.627638,-1.1797794,-3.0112336
1715849113.872279,-0.71907085,-0.7984928,0.010561105,4.627638,-1.1797794,-3.0112336
1715849113.87349,-0.71907085,-0.7984928,0.010561105,4.627638,-1.1797794,-3.0112336
1715849113.87471,-0.71907085,-0.7984928,0.010561105,4.627638,-1.1797794,-3.0112336
1715849113.875925,-0.71907085,-0.7984928,0.010561105,4.627638,-1.1797794,-3.0112336
1715849113.877138,-0.71907085,-0.7984928,0.010561105,4.627638,-1.1797794,-3.0112336
1715849113.878352,-0.71907085,-0.7984928,0.010561105,4.627638,-1.1797794,-3.0112336
1715849113.879705,-0.71907085,-0.7984928,0.010561105,4.627638,-1.1797794,-3.0112336
1715849113.880928,-0.78793174,-0.784452,-0.12746581,4.5285683,-1.2522173,-2.5318651
1715849113.882147,-0.78793174,-0.784452,-0.12746581,4.5285683,-1.2522173,-2.5318651
1715849113.883359,-0.78793174,-0.784452,-0.12746581,4.5285683,-1.2522173,-2.5318651
1715849113.88458,-0.78793174,-0.784452,-0.12746581,4.5285683,-1.2522173,-2.5318651
1715849113.885812,-0.78793174,-0.784452,-0.12746581,4.5285683,-1.2522173,-2.5318651
1715849113.887026,-0.78793174,-0.784452,-0.12746581,4.5285683,-1.2522173,-2.5318651
1715849113.888257,-0.8074667,-0.81015277,-0.34784496,4.4199114,-1.2777836,-2.1291955
1715849113.889497,-0.8074667,-0.81015277,-0.34784496,4.4199114,-1.2777836,-2.1291955
1715849113.890712,-0.8074667,-0.81015277,-0.34784496,4.4199114,-1.2777836,-2.1291955
1715849113.89187,-0.8074667,-0.81015277,-0.34784496,4.4199114,-1.2777836,-2.1291955
1715849113.893098,-0.8074667,-0.81015277,-0.34784496,4.4199114,-1.2777836,-2.1291955
1715849113.894324,-0.8074667,-0.81015277,-0.34784496,4.4199114,-1.2777836,-2.1291955
1715849113.895493,-0.8074667,-0.81015277,-0.34784496,4.4199114,-1.2777836,-2.1291955
1715849113.89709,-0.8713828,-0.909537,-0.6224337,4.2334905,-1.3619394,-1.719069
1715849113.898308,-0.8713828,-0.909537,-0.6224337,4.2334905,-1.3619394,-1.719069
1715849113.899482,-0.8713828,-0.909537,-0.6224337,4.2334905,-1.3619394,-1.719069
1715849113.900709,-0.8713828,-0.909537,-0.6224337,4.2334905,-1.3619394,-1.719069
1715849113.901936,-0.8713828,-0.909537,-0.6224337,4.2334905,-1.3619394,-1.719069
1715849113.903178,-0.8713828,-0.909537,-0.6224337,4.2334905,-1.3619394,-1.719069
1715849113.904425,-0.8713828,-0.909537,-0.6224337,4.2334905,-1.3619394,-1.719069
1715849113.905662,-0.8713828,-0.909537,-0.6224337,4.2334905,-1.3619394,-1.719069
1715849113.906882,-0.8713828,-0.909537,-0.6224337,4.2334905,-1.3619394,-1.719069
1715849113.908101,-0.8713828,-0.909537,-0.6224337,4.2334905,-1.3619394,-1.719069
1715849113.909333,-0.8713828,-0.909537,-0.6224337,4.2334905,-1.3619394,-1.719069
1715849113.910558,-0.8713828,-0.909537,-0.6224337,4.2334905,-1.3619394,-1.719069
1715849113.911816,-0.8713828,-0.909537,-0.6224337,4.2334905,-1.3619394,-1.719069
1715849113.913032,-0.9163133,-1.0055637,-0.7716322,4.079027,-1.5749922,-1.4687321
1715849113.914251,-0.9163133,-1.0055637,-0.7716322,4.079027,-1.5749922,-1.4687321
1715849113.915419,-0.9163133,-1.0055637,-0.7716322,4.079027,-1.5749922,-1.4687321
1715849113.91667,-0.9163133,-1.0055637,-0.7716322,3.8702354,-2.0298595,-1.1938941
1715849113.917981,-0.9163133,-1.0055637,-0.7716322,3.8702354,-2.0298595,-1.1938941
1715849113.919274,-0.8958015,-1.186934,-0.9804124,3.8702354,-2.0298595,-1.1938941
1715849113.92054,-0.8958015,-1.186934,-0.9804124,3.8702354,-2.0298595,-1.1938941
1715849113.921769,-0.8958015,-1.186934,-0.9804124,3.8702354,-2.0298595,-1.1938941
1715849113.922998,-0.8958015,-1.186934,-0.9804124,3.8702354,-2.0298595,-1.1938941
1715849113.924229,-0.8958015,-1.186934,-0.9804124,3.8702354,-2.0298595,-1.1938941
1715849113.925398,-0.8958015,-1.186934,-0.9804124,3.8702354,-2.0298595,-1.1938941
1715849113.926602,-0.8958015,-1.186934,-0.9804124,3.8702354,-2.0298595,-1.1938941
1715849113.927782,-0.8958015,-1.186934,-0.9804124,3.8702354,-2.0298595,-1.1938941
1715849113.929006,-0.8958015,-1.186934,-0.9804124,3.8702354,-2.0298595,-1.1938941
1715849113.930275,-0.8958015,-1.186934,-0.9804124,3.8702354,-2.0298595,-1.1938941
1715849113.931615,-0.8958015,-1.186934,-0.9804124,3.8702354,-2.0298595,-1.1938941
1715849113.932847,-0.8958015,-1.186934,-0.9804124,3.8702354,-2.0298595,-1.1938941
1715849113.934077,-0.8958015,-1.186934,-0.9804124,3.8702354,-2.0298595,-1.1938941
1715849113.935326,-0.8958015,-1.186934,-0.9804124,3.8702354,-2.0298595,-1.1938941
1715849113.936558,-0.8958015,-1.186934,-0.9804124,3.8702354,-2.0298595,-1.1938941
1715849113.937792,-0.8958015,-1.186934,-0.9804124,3.8702354,-2.0298595,-1.1938941
1715849113.939021,-0.8958015,-1.186934,-0.9804124,3.600724,-2.3089588,-1.0191909
1715849113.940251,-0.8958015,-1.186934,-0.9804124,3.600724,-2.3089588,-1.0191909
1715849113.941511,-0.8958015,-1.186934,-0.9804124,3.600724,-2.3089588,-1.0191909
1715849113.94285,-0.8958015,-1.186934,-0.9804124,3.600724,-2.3089588,-1.0191909
1715849113.944076,-0.8958015,-1.186934,-0.9804124,3.600724,-2.3089588,-1.0191909
1715849113.945323,-0.8958015,-1.186934,-0.9804124,3.600724,-2.3089588,-1.0191909
1715849113.946525,-0.8958015,-1.186934,-0.9804124,3.600724,-2.3089588,-1.0191909
1715849113.947718,-0.8958015,-1.186934,-0.9804124,3.600724,-2.3089588,-1.0191909
1715849113.9489,-0.8958015,-1.186934,-0.9804124,3.600724,-2.3089588,-1.0191909
1715849113.950075,-0.8958015,-1.186934,-0.9804124,3.600724,-2.3089588,-1.0191909
1715849113.951349,-0.8958015,-1.186934,-0.9804124,3.600724,-2.3089588,-1.0191909
1715849113.952581,-0.8958015,-1.186934,-0.9804124,3.600724,-2.3089588,-1.0191909
1715849113.953799,-0.8958015,-1.186934,-0.9804124,3.600724,-2.3089588,-1.0191909
1715849113.9554,-1.468421,-1.6994222,-2.0832238,2.1146812,-1.3832446,-0.6410223
1715849113.956531,-1.468421,-1.6994222,-2.0832238,2.1146812,-1.3832446,-0.6410223
1715849113.957925,-1.468421,-1.6994222,-2.0832238,0.94715244,-0.24873903,-0.15845795
1715849113.959144,-1.8643098,-1.7692598,-2.233399,0.94715244,-0.24873903,-0.15845795
1715849113.960347,-1.8643098,-1.7692598,-2.233399,0.94715244,-0.24873903,-0.15845795
1715849113.961516,-1.8643098,-1.7692598,-2.233399,0.94715244,-0.24873903,-0.15845795
1715849113.96268,-1.8643098,-1.7692598,-2.233399,0.94715244,-0.24873903,-0.15845795
1715849113.963901,-1.8643098,-1.7692598,-2.233399,0.94715244,-0.24873903,-0.15845795
1715849113.965119,-1.8643098,-1.7692598,-2.233399,0.94715244,-0.24873903,-0.15845795
1715849113.966495,-2.0459242,-1.8803041,-2.1675296,-0.26618272,0.8761793,0.49561384
1715849113.967677,-2.0459242,-1.8803041,-2.1675296,-0.26618272,0.8761793,0.49561384
1715849113.968851,-2.0459242,-1.8803041,-2.1675296,-0.26618272,0.8761793,0.49561384
1715849113.970071,-2.0459242,-1.8803041,-2.1675296,-0.26618272,0.8761793,0.49561384
1715849113.971356,-2.0459242,-1.8803041,-2.1675296,-0.26618272,0.8761793,0.49561384
1715849113.972615,-2.0459242,-1.8803041,-2.1675296,-0.26618272,0.8761793,0.49561384
1715849113.97384,-2.0459242,-1.8803041,-2.1675296,-0.26618272,0.8761793,0.49561384
1715849113.975061,-2.0459242,-1.8803041,-2.1675296,-0.26618272,0.8761793,0.49561384
1715849113.976284,-2.0459242,-1.8803041,-2.1675296,-0.26618272,0.8761793,0.49561384
1715849113.977505,-2.0459242,-1.8803041,-2.1675296,-0.26618272,0.8761793,0.49561384
1715849113.978724,-2.0459242,-1.8803041,-2.1675296,-0.26618272,0.8761793,0.49561384
1715849113.979943,-2.0459242,-1.8803041,-2.1675296,-0.26618272,0.8761793,0.49561384
1715849113.981163,-2.0459242,-1.8803041,-2.1675296,-0.26618272,0.8761793,0.49561384
1715849113.98232,-2.0400636,-1.9583831,-1.9534382,-1.253682,1.841308,1.1475551
1715849113.983552,-2.0400636,-1.9583831,-1.9534382,-1.253682,1.841308,1.1475551
1715849113.984781,-2.0400636,-1.9583831,-1.9534382,-1.253682,1.841308,1.1475551
1715849113.986458,-1.9238305,-1.9763308,-1.7568063,-1.7788569,2.379266,1.5502248
1715849113.987638,-1.9238305,-1.9763308,-1.7568063,-1.7788569,2.379266,1.5502248
1715849113.988878,-1.9238305,-1.9763308,-1.7568063,-1.7788569,2.379266,1.5502248
1715849113.990116,-1.9238305,-1.9763308,-1.7568063,-1.7788569,2.379266,1.5502248
1715849113.991357,-1.9238305,-1.9763308,-1.7568063,-1.7788569,2.379266,1.5502248
1715849113.992585,-1.9238305,-1.9763308,-1.7568063,-1.7788569,2.379266,1.5502248
1715849113.993816,-1.9238305,-1.9763308,-1.7568063,-1.7788569,2.379266,1.5502248
1715849113.995029,-1.9238305,-1.9763308,-1.7568063,-1.7788569,2.379266,1.5502248
1715849113.996252,-1.9238305,-1.9763308,-1.7568063,-1.7788569,2.379266,1.5502248
1715849113.997409,-1.7915419,-1.9680893,-1.6003432,-1.7788569,2.379266,1.5502248
1715849113.998627,-1.7915419,-1.9680893,-1.6003432,-2.1708739,2.932138,1.8367807
1715849113.999892,-1.7915419,-1.9680893,-1.6003432,-2.1708739,2.932138,1.8367807
1715849114.001126,-1.7915419,-1.9680893,-1.6003432,-2.1708739,2.932138,1.8367807
1715849114.002356,-1.7915419,-1.9680893,-1.6003432,-2.1708739,2.932138,1.8367807
1715849114.003629,-1.7915419,-1.9680893,-1.6003432,-2.1708739,2.932138,1.8367807
1715849114.004813,-1.7915419,-1.9680893,-1.6003432,-2.1708739,2.932138,1.8367807
1715849114.006099,-1.7915419,-1.9680893,-1.6003432,-2.1708739,2.932138,1.8367807
1715849114.00735,-1.8726122,-1.8948332,-1.5562674,-2.348773,3.280479,2.0551596
1715849114.008582,-1.8726122,-1.8948332,-1.5562674,-2.348773,3.280479,2.0551596
1715849114.009764,-1.8726122,-1.8948332,-1.5562674,-2.348773,3.280479,2.0551596
1715849114.01099,-1.8726122,-1.8948332,-1.5562674,-2.348773,3.280479,2.0551596
1715849114.012224,-1.8726122,-1.8948332,-1.5562674,-2.348773,3.280479,2.0551596
1715849114.013453,-1.8726122,-1.8948332,-1.5562674,-2.348773,3.280479,2.0551596
1715849114.0147,-1.8726122,-1.8948332,-1.5562674,-2.348773,3.280479,2.0551596
1715849114.015929,-1.8726122,-1.8948332,-1.5562674,-2.348773,3.280479,2.0551596
1715849114.017168,-1.8335421,-1.8046671,-1.5073688,-2.486192,3.2176285,2.614423
1715849114.018394,-1.8335421,-1.8046671,-1.5073688,-2.486192,3.2176285,2.614423
1715849114.019589,-1.8335421,-1.8046671,-1.5073688,-2.486192,3.2176285,2.614423
1715849114.02082,-1.8335421,-1.8046671,-1.5073688,-2.486192,3.2176285,2.614423
1715849114.02205,-1.8335421,-1.8046671,-1.5073688,-2.486192,3.2176285,2.614423
1715849114.023309,-1.8335421,-1.8046671,-1.5073688,-2.486192,3.2176285,2.614423
1715849114.024556,-1.8335421,-1.8046671,-1.5073688,-2.486192,3.2176285,2.614423
1715849114.02579,-1.8335421,-1.8046671,-1.5073688,-2.486192,3.2176285,2.614423
1715849114.027021,-1.8335421,-1.8046671,-1.5073688,-2.486192,3.2176285,2.614423
1715849114.028265,-1.8335421,-1.8046671,-1.5073688,-2.486192,3.2176285,2.614423
1715849114.029498,-1.8335421,-1.8046671,-1.5073688,-2.486192,3.2176285,2.614423
1715849114.030728,-1.8335421,-1.8046671,-1.5073688,-2.486192,3.2176285,2.614423
1715849114.031936,-1.8335421,-1.8046671,-1.5073688,-2.486192,3.2176285,2.614423
1715849114.033165,-1.8335421,-1.8046671,-1.5073688,-2.486192,3.2176285,2.614423
1715849114.034396,-1.8335421,-1.8046671,-1.5073688,-2.486192,3.2176285,2.614423
1715849114.035573,-1.8335421,-1.8046671,-1.5073688,-2.486192,3.2176285,2.614423
1715849114.036801,-1.8335421,-1.8046671,-1.5073688,-2.486192,3.2176285,2.614423
1715849114.038041,-1.8335421,-1.8046671,-1.5073688,-2.486192,3.2176285,2.614423
1715849114.039299,-1.8335421,-1.8046671,-1.5073688,-2.486192,3.2176285,2.614423
1715849114.040526,-1.8335421,-1.8046671,-1.5073688,-2.486192,3.2176285,2.614423
1715849114.041772,-1.8335421,-1.8046671,-1.5073688,-2.486192,3.2176285,2.614423
1715849114.043011,-1.8335421,-1.8046671,-1.5073688,-2.486192,3.2176285,2.614423
1715849114.044258,-1.8335421,-1.8046671,-1.5073688,-2.486192,3.2176285,2.614423
1715849114.045476,-1.8335421,-1.8046671,-1.5073688,-2.486192,3.2176285,2.614423
1715849114.046707,-1.8335421,-1.8046671,-1.5073688,-2.486192,3.2176285,2.614423
1715849114.047927,-1.8335421,-1.8046671,-1.5073688,-2.486192,3.2176285,2.614423
1715849114.049147,-1.8335421,-1.8046671,-1.5073688,-2.486192,3.2176285,2.614423
1715849114.05031,-1.8335421,-1.8046671,-1.5073688,-2.486192,3.2176285,2.614423
1715849114.051476,-1.8335421,-1.8046671,-1.5073688,-2.486192,3.2176285,2.614423
1715849114.052711,-1.8335421,-1.8046671,-1.5073688,-2.486192,3.2176285,2.614423
1715849114.053931,-1.8335421,-1.8046671,-1.5073688,-2.486192,3.2176285,2.614423
1715849114.055153,-1.8335421,-1.8046671,-1.5073688,-2.486192,3.2176285,2.614423
1715849114.056356,-1.8335421,-1.8046671,-1.5073688,-2.486192,3.2176285,2.614423
1715849114.057531,-0.27147534,-1.4565167,-1.1435907,-3.724028,2.536925,4.8557377
1715849114.058728,-0.27147534,-1.4565167,-1.1435907,-3.724028,2.536925,4.8557377
1715849114.059948,-0.27147534,-1.4565167,-1.1435907,-3.724028,2.536925,4.8557377
1715849114.061169,-0.27147534,-1.4565167,-1.1435907,-3.724028,2.536925,4.8557377
1715849114.062406,-0.27147534,-1.4565167,-1.1435907,-3.724028,2.536925,4.8557377
1715849114.063609,-0.27147534,-1.4565167,-1.1435907,-3.724028,2.536925,4.8557377
1715849114.064836,-0.27147534,-1.4565167,-1.1435907,-3.724028,2.536925,4.8557377
1715849114.066077,-0.27147534,-1.4565167,-1.1435907,-3.724028,2.536925,4.8557377
1715849114.067599,0.1356461,-1.4118916,-1.0448169,-4.309923,2.4889882,5.0932913
1715849114.068756,0.1356461,-1.4118916,-1.0448169,-4.309923,2.4889882,5.0932913
1715849114.069902,0.1356461,-1.4118916,-1.0448169,-4.309923,2.4889882,5.0932913
1715849114.071035,0.1356461,-1.4118916,-1.0448169,-4.309923,2.4889882,5.0932913
1715849114.072262,0.1356461,-1.4118916,-1.0448169,-4.309923,2.4889882,5.0932913
1715849114.07349,0.1356461,-1.4118916,-1.0448169,-4.309923,2.4889882,5.0932913
1715849114.074693,0.1356461,-1.4118916,-1.0448169,-4.309923,2.4889882,5.0932913
1715849114.07592,0.1356461,-1.4118916,-1.0448169,-4.309923,2.4889882,5.0932913
1715849114.077139,0.1356461,-1.4118916,-1.0448169,-4.309923,2.4889882,5.0932913
1715849114.078339,0.1356461,-1.4118916,-1.0448169,-4.309923,2.4889882,5.0932913
1715849114.079506,0.1356461,-1.4118916,-1.0448169,-4.309923,2.4889882,5.0932913
1715849114.080919,0.1356461,-1.4118916,-1.0448169,-4.309923,2.4889882,5.0932913
1715849114.082133,0.62432617,-1.3662896,-0.78958,-5.247355,2.2929797,5.222188
1715849114.083365,0.62432617,-1.3662896,-0.78958,-5.247355,2.2929797,5.222188
1715849114.084587,0.62432617,-1.3662896,-0.78958,-5.247355,2.2929797,5.222188
1715849114.085807,0.62432617,-1.3662896,-0.78958,-5.247355,2.2929797,5.222188
1715849114.08703,1.029494,-1.3120189,-0.34931007,-6.2156796,1.8253291,5.16999
1715849114.088254,1.029494,-1.3120189,-0.34931007,-6.2156796,1.8253291,5.16999
1715849114.089417,1.029494,-1.3120189,-0.34931007,-6.2156796,1.8253291,5.16999
1715849114.090639,1.029494,-1.3120189,-0.34931007,-6.2156796,1.8253291,5.16999
1715849114.091835,1.029494,-1.3120189,-0.34931007,-6.2156796,1.8253291,5.16999
1715849114.09304,1.029494,-1.3120189,-0.34931007,-6.2156796,1.8253291,5.16999
1715849114.09429,1.029494,-1.3120189,-0.34931007,-6.2156796,1.8253291,5.16999
1715849114.095635,1.029494,-1.3120189,-0.34931007,-6.2156796,1.8253291,5.16999
1715849114.099553,1.2564663,-1.2960247,0.050302606,-6.876143,1.3651352,5.100748
1715849114.100732,1.2564663,-1.2960247,0.050302606,-6.876143,1.3651352,5.100748
1715849114.101869,1.2564663,-1.2960247,0.050302606,-6.876143,1.3651352,5.100748
1715849114.103017,1.2564663,-1.2960247,0.050302606,-6.876143,1.3651352,5.100748
1715849114.104272,1.2564663,-1.2960247,0.050302606,-6.876143,1.3651352,5.100748
1715849114.105493,1.2564663,-1.2960247,0.050302606,-6.876143,1.3651352,5.100748
1715849114.106721,1.2564663,-1.2960247,0.050302606,-6.876143,1.3651352,5.100748
1715849114.107942,1.6192067,-1.2945596,0.8402489,-7.621827,0.74195606,4.9675903
1715849114.109163,1.6192067,-1.2945596,0.8402489,-7.621827,0.74195606,4.9675903
1715849114.110385,1.6192067,-1.2945596,0.8402489,-7.621827,0.74195606,4.9675903
1715849114.111554,1.6192067,-1.2945596,0.8402489,-7.621827,0.74195606,4.9675903
1715849114.112781,1.6192067,-1.2945596,0.8402489,-7.621827,0.74195606,4.9675903
1715849114.114005,1.6192067,-1.2945596,0.8402489,-7.621827,0.74195606,4.9675903
1715849114.115243,1.6192067,-1.2945596,0.8402489,-7.621827,0.74195606,4.9675903
1715849114.116466,1.6192067,-1.2945596,0.8402489,-7.621827,0.74195606,4.9675903
1715849114.117688,1.6192067,-1.2945596,0.8402489,-7.621827,0.74195606,4.9675903
1715849114.118908,1.6192067,-1.2945596,0.8402489,-7.621827,0.74195606,4.9675903
1715849114.120129,1.6192067,-1.2945596,0.8402489,-7.621827,0.74195606,4.9675903
1715849114.121364,1.6192067,-1.2945596,0.8402489,-7.621827,0.74195606,4.9675903
1715849114.122603,1.6192067,-1.2945596,0.8402489,-7.621827,0.74195606,4.9675903
1715849114.12381,1.6192067,-1.2945596,0.8402489,-7.621827,0.74195606,4.9675903
1715849114.125042,1.6192067,-1.2945596,0.8402489,-7.621827,0.74195606,4.9675903
1715849114.126271,1.6192067,-1.2945596,0.8402489,-7.621827,0.74195606,4.9675903
1715849114.127453,1.6192067,-1.2945596,0.8402489,-7.621827,0.74195606,4.9675903
1715849114.128734,1.6192067,-1.2945596,0.8402489,-7.621827,0.74195606,4.9675903
1715849114.12997,1.6192067,-1.2945596,0.8402489,-7.621827,0.74195606,4.9675903
1715849114.13121,1.6192067,-1.2945596,0.8402489,-7.621827,0.74195606,4.9675903
1715849114.132606,1.6192067,-1.2945596,0.8402489,-7.621827,0.74195606,4.9675903
1715849114.133919,1.6192067,-1.2945596,0.8402489,-7.621827,0.74195606,4.9675903
1715849114.135546,1.6192067,-1.2945596,0.8402489,-7.621827,0.74195606,4.9675903
1715849114.136769,1.6192067,-1.2945596,0.8402489,-7.621827,0.74195606,4.9675903
1715849114.137981,1.6192067,-1.2945596,0.8402489,-7.621827,0.74195606,4.9675903
1715849114.139194,1.6192067,-1.2945596,0.8402489,-7.621827,0.74195606,4.9675903
1715849114.140354,1.6192067,-1.2945596,0.8402489,-7.621827,0.74195606,4.9675903
1715849114.141567,1.6192067,-1.2945596,0.8402489,-7.621827,0.74195606,4.9675903
1715849114.142781,1.6192067,-1.2945596,0.8402489,-7.621827,0.74195606,4.9675903
1715849114.144001,1.6192067,-1.2945596,0.8402489,-7.621827,0.74195606,4.9675903
1715849114.14518,1.6192067,-1.2945596,0.8402489,-7.621827,0.74195606,4.9675903
1715849114.146522,1.9789557,-1.1728321,2.2274165,-7.8295536,0.33076432,4.7151227
1715849114.147731,1.9789557,-1.1728321,2.2274165,-7.6058483,0.6801708,4.54255
1715849114.149125,1.9252955,-1.1782042,2.331074,-7.431145,1.0167941,4.4306974
1715849114.150332,1.9252955,-1.1782042,2.331074,-7.431145,1.0167941,4.4306974
1715849114.151503,1.9252955,-1.1782042,2.331074,-7.431145,1.0167941,4.4306974
1715849114.152728,1.9252955,-1.1782042,2.331074,-7.431145,1.0167941,4.4306974
1715849114.153952,1.9252955,-1.1782042,2.331074,-7.431145,1.0167941,4.4306974
1715849114.155171,1.9252955,-1.1782042,2.331074,-7.431145,1.0167941,4.4306974
1715849114.156469,1.5118253,-1.1820502,2.3969436,-6.9954524,2.1981714,4.182491
1715849114.157696,1.5118253,-1.1820502,2.3969436,-6.9954524,2.1981714,4.182491
1715849114.158895,1.5118253,-1.1820502,2.3969436,-6.9954524,2.1981714,4.182491
1715849114.160113,1.5118253,-1.1820502,2.3969436,-6.9954524,2.1981714,4.182491
1715849114.161334,1.5118253,-1.1820502,2.3969436,-6.9954524,2.1981714,4.182491
1715849114.162565,1.5118253,-1.1820502,2.3969436,-6.9954524,2.1981714,4.182491
1715849114.163799,1.5118253,-1.1820502,2.3969436,-6.9954524,2.1981714,4.182491
1715849114.16502,1.5118253,-1.1820502,2.3969436,-6.9954524,2.1981714,4.182491
1715849114.166243,1.5118253,-1.1820502,2.3969436,-6.9954524,2.1981714,4.182491
1715849114.167425,1.2404109,-1.2349167,2.3751497,-6.787726,2.710563,4.033354
1715849114.168712,1.2404109,-1.2349167,2.3751497,-6.787726,2.710563,4.033354
1715849114.169927,1.2404109,-1.2349167,2.3751497,-6.787726,2.710563,4.033354
1715849114.171125,1.2404109,-1.2349167,2.3751497,-6.787726,2.710563,4.033354
1715849114.172344,1.2404109,-1.2349167,2.3751497,-6.787726,2.710563,4.033354
1715849114.173565,1.2404109,-1.2349167,2.3751497,-6.787726,2.710563,4.033354
1715849114.174789,1.2404109,-1.2349167,2.3751497,-6.787726,2.710563,4.033354
1715849114.176004,1.2404109,-1.2349167,2.3751497,-6.787726,2.710563,4.033354
1715849114.177218,1.2404109,-1.2349167,2.3751497,-6.787726,2.710563,4.033354
1715849114.17844,1.2404109,-1.2349167,2.3751497,-6.787726,2.710563,4.033354
1715849114.17964,1.2404109,-1.2349167,2.3751497,-6.787726,2.710563,4.033354
1715849114.180857,1.2404109,-1.2349167,2.3751497,-6.787726,2.710563,4.033354
1715849114.182095,0.9523919,-1.3163533,2.283152,-6.6364584,2.8543737,3.8650424
1715849114.183342,0.9523919,-1.3163533,2.283152,-6.6364584,2.8543737,3.8650424
1715849114.184549,0.9523919,-1.3163533,2.283152,-6.6364584,2.8543737,3.8650424
1715849114.18591,0.9523919,-1.3163533,2.283152,-6.6364584,2.8543737,3.8650424
1715849114.187153,0.712722,-1.3924787,2.2003117,-6.6332626,2.6967146,3.7009919
1715849114.188428,0.712722,-1.3924787,2.2003117,-6.6332626,2.6967146,3.7009919
1715849114.189634,0.712722,-1.3924787,2.2003117,-6.6332626,2.6967146,3.7009919
1715849114.190867,0.712722,-1.3924787,2.2003117,-6.6332626,2.6967146,3.7009919
1715849114.192099,0.712722,-1.3924787,2.2003117,-6.6332626,2.6967146,3.7009919
1715849114.193342,0.712722,-1.3924787,2.2003117,-6.6332626,2.6967146,3.7009919
1715849114.194574,0.712722,-1.3924787,2.2003117,-6.6332626,2.6967146,3.7009919
1715849114.195798,0.712722,-1.3924787,2.2003117,-6.6332626,2.6967146,3.7009919
1715849114.197029,0.712722,-1.3924787,2.2003117,-6.6332626,2.6967146,3.7009919
1715849114.198309,0.5721311,-1.4075572,2.2012885,-6.6598945,2.5742092,3.625358
1715849114.199488,0.5721311,-1.4075572,2.2012885,-6.6598945,2.5742092,3.625358
1715849114.200718,0.5721311,-1.4075572,2.2012885,-6.6598945,2.5742092,3.625358
1715849114.201953,0.5721311,-1.4075572,2.2012885,-6.6598945,2.5742092,3.625358
1715849114.203181,0.5721311,-1.4075572,2.2012885,-6.6598945,2.5742092,3.625358
1715849114.204415,0.5721311,-1.4075572,2.2012885,-6.6598945,2.5742092,3.625358
1715849114.20567,0.5721311,-1.4075572,2.2012885,-6.6598945,2.5742092,3.625358
1715849114.206857,0.5721311,-1.4075572,2.2012885,-6.6598945,2.5742092,3.625358
1715849114.208045,0.5721311,-1.4075572,2.2012885,-6.6598945,2.5742092,3.625358
1715849114.209264,0.5721311,-1.4075572,2.2012885,-6.6598945,2.5742092,3.625358
1715849114.210483,0.5721311,-1.4075572,2.2012885,-6.6598945,2.5742092,3.625358
1715849114.21168,0.5721311,-1.4075572,2.2012885,-6.6598945,2.5742092,3.625358
1715849114.2129,0.5721311,-1.4075572,2.2012885,-6.6598945,2.5742092,3.625358
1715849114.214118,0.5721311,-1.4075572,2.2012885,-6.6598945,2.5742092,3.625358
1715849114.215409,0.5721311,-1.4075572,2.2012885,-6.6598945,2.5742092,3.625358
1715849114.216557,0.5721311,-1.4075572,2.2012885,-6.6598945,2.5742092,3.625358
1715849114.217776,0.5721311,-1.4075572,2.2012885,-6.6598945,2.5742092,3.625358
1715849114.218995,0.5721311,-1.4075572,2.2012885,-6.6598945,2.5742092,3.625358
1715849114.220223,0.5721311,-1.4075572,2.2012885,-6.6598945,2.5742092,3.625358
1715849114.221485,0.5721311,-1.4075572,2.2012885,-6.6598945,2.5742092,3.625358
1715849114.22271,0.5721311,-1.4075572,2.2012885,-6.6598945,2.5742092,3.625358
1715849114.223939,0.5721311,-1.4075572,2.2012885,-6.6598945,2.5742092,3.625358
1715849114.225169,0.5721311,-1.4075572,2.2012885,-6.6598945,2.5742092,3.625358
1715849114.226401,0.5721311,-1.4075572,2.2012885,-6.6598945,2.5742092,3.625358
1715849114.227628,0.5721311,-1.4075572,2.2012885,-6.6598945,2.5742092,3.625358
1715849114.228937,0.5721311,-1.4075572,2.2012885,-6.6598945,2.5742092,3.625358
1715849114.230168,0.5721311,-1.4075572,2.2012885,-6.6598945,2.5742092,3.625358
1715849114.231392,0.5721311,-1.4075572,2.2012885,-6.6598945,2.5742092,3.625358
1715849114.232628,0.5721311,-1.4075572,2.2012885,-6.6598945,2.5742092,3.625358
1715849114.233806,0.5721311,-1.4075572,2.2012885,-6.6598945,2.5742092,3.625358
1715849114.23507,0.5721311,-1.4075572,2.2012885,-6.6598945,2.5742092,3.625358
1715849114.236274,0.5721311,-1.4075572,2.2012885,-6.6598945,2.5742092,3.625358
1715849114.237505,-0.2831353,-1.362932,2.2283933,-6.4809303,2.006424,3.932154
1715849114.238689,-0.30755404,-1.3023125,2.166919,-6.407427,1.8615481,4.364651
1715849114.239918,-0.30755404,-1.3023125,2.166919,-6.407427,1.8615481,4.364651
1715849114.241146,-0.30755404,-1.3023125,2.166919,-6.407427,1.8615481,4.364651
1715849114.242375,-0.30755404,-1.3023125,2.166919,-6.407427,1.8615481,4.364651
1715849114.243554,-0.30755404,-1.3023125,2.166919,-6.407427,1.8615481,4.364651
1715849114.244794,-0.30755404,-1.3023125,2.166919,-6.407427,1.8615481,4.364651
1715849114.246062,-0.30755404,-1.3023125,2.166919,-6.407427,1.8615481,4.364651
1715849114.247326,-0.30755404,-1.3023125,2.166919,-6.407427,1.8615481,4.364651
1715849114.248557,-0.12056753,-1.2378471,2.1814482,-6.407427,1.8615481,4.364651
1715849114.249735,-0.12056753,-1.2378471,2.1814482,-6.355229,1.8189374,4.8237796
1715849114.250912,-0.12056753,-1.2378471,2.1814482,-6.355229,1.8189374,4.8237796
1715849114.252094,-0.12056753,-1.2378471,2.1814482,-6.355229,1.8189374,4.8237796
1715849114.253316,-0.12056753,-1.2378471,2.1814482,-6.355229,1.8189374,4.8237796
1715849114.254491,-0.12056753,-1.2378471,2.1814482,-6.355229,1.8189374,4.8237796
1715849114.255685,-0.12056753,-1.2378471,2.1814482,-6.355229,1.8189374,4.8237796
1715849114.256989,-0.12056753,-1.2378471,2.1814482,-6.2518983,1.8104154,5.125249
1715849114.258156,0.22208846,-1.1025062,2.2545822,-6.2518983,1.8104154,5.125249
1715849114.259346,0.22208846,-1.1025062,2.2545822,-6.2518983,1.8104154,5.125249
1715849114.260493,0.22208846,-1.1025062,2.2545822,-6.2518983,1.8104154,5.125249
1715849114.261747,0.22208846,-1.1025062,2.2545822,-6.2518983,1.8104154,5.125249
1715849114.262944,0.22208846,-1.1025062,2.2545822,-6.2518983,1.8104154,5.125249
1715849114.26419,0.22208846,-1.1025062,2.2545822,-6.2518983,1.8104154,5.125249
1715849114.265387,0.22208846,-1.1025062,2.2545822,-6.2518983,1.8104154,5.125249
1715849114.266926,0.22208846,-1.1025062,2.2545822,-6.2518983,1.8104154,5.125249
1715849114.268222,0.53794485,-0.8984265,2.1882243,-6.129393,1.8796575,5.2168617
1715849114.269442,0.53794485,-0.8984265,2.1882243,-6.129393,1.8796575,5.2168617
1715849114.270661,0.53794485,-0.8984265,2.1882243,-6.129393,1.8796575,5.2168617
1715849114.27188,0.53794485,-0.8984265,2.1882243,-6.129393,1.8796575,5.2168617
1715849114.2731,0.53794485,-0.8984265,2.1882243,-6.129393,1.8796575,5.2168617
1715849114.274319,0.53794485,-0.8984265,2.1882243,-6.129393,1.8796575,5.2168617
1715849114.27558,0.53794485,-0.8984265,2.1882243,-6.129393,1.8796575,5.2168617
1715849114.276822,0.6165732,-0.78591716,2.099096,-6.1400456,1.982988,5.200883
1715849114.278026,0.6165732,-0.78591716,2.099096,-6.1400456,1.982988,5.200883
1715849114.279303,0.6165732,-0.78591716,2.099096,-6.1400456,1.982988,5.200883
1715849114.280523,0.6165732,-0.78591716,2.099096,-6.1400456,1.982988,5.200883
1715849114.281756,0.6165732,-0.78591716,2.099096,-6.1400456,1.982988,5.200883
1715849114.282975,0.6165732,-0.78591716,2.099096,-6.1400456,1.982988,5.200883
1715849114.284151,0.6165732,-0.78591716,2.099096,-6.1400456,1.982988,5.200883
1715849114.285359,0.6165732,-0.78591716,2.099096,-6.1400456,1.982988,5.200883
1715849114.286575,0.6165732,-0.78591716,2.099096,-6.1400456,1.982988,5.200883
1715849114.287976,0.90306604,-0.44985422,1.9484323,-6.1400456,1.982988,5.200883
1715849114.289208,0.90306604,-0.44985422,1.9484323,-6.4191446,2.5390556,5.0783777
1715849114.290438,0.90306604,-0.44985422,1.9484323,-6.4191446,2.5390556,5.0783777
1715849114.291649,0.90306604,-0.44985422,1.9484323,-6.4191446,2.5390556,5.0783777
1715849114.292877,0.90306604,-0.44985422,1.9484323,-6.4191446,2.5390556,5.0783777
1715849114.294124,0.90306604,-0.44985422,1.9484323,-6.4191446,2.5390556,5.0783777
1715849114.295386,0.90306604,-0.44985422,1.9484323,-6.4191446,2.5390556,5.0783777
1715849114.296633,0.90306604,-0.44985422,1.9484323,-6.4191446,2.5390556,5.0783777
1715849114.298037,0.90306604,-0.44985422,1.9484323,-6.4191446,2.5390556,5.0783777
1715849114.299291,0.90306604,-0.44985422,1.9484323,-6.4191446,2.5390556,5.0783777
1715849114.300469,0.90306604,-0.44985422,1.9484323,-6.4191446,2.5390556,5.0783777
1715849114.301717,0.90306604,-0.44985422,1.9484323,-6.4191446,2.5390556,5.0783777
1715849114.302946,0.90306604,-0.44985422,1.9484323,-6.4191446,2.5390556,5.0783777
1715849114.304126,0.90306604,-0.44985422,1.9484323,-6.4191446,2.5390556,5.0783777
1715849114.305296,0.90306604,-0.44985422,1.9484323,-6.4191446,2.5390556,5.0783777
1715849114.306526,0.90306604,-0.44985422,1.9484323,-6.4191446,2.5390556,5.0783777
1715849114.307728,0.90306604,-0.44985422,1.9484323,-6.4191446,2.5390556,5.0783777
1715849114.308948,0.90306604,-0.44985422,1.9484323,-6.4191446,2.5390556,5.0783777
1715849114.31017,0.90306604,-0.44985422,1.9484323,-6.4191446,2.5390556,5.0783777
1715849114.311387,0.90306604,-0.44985422,1.9484323,-6.4191446,2.5390556,5.0783777
1715849114.312609,0.90306604,-0.44985422,1.9484323,-6.4191446,2.5390556,5.0783777
1715849114.313824,0.90306604,-0.44985422,1.9484323,-6.4191446,2.5390556,5.0783777
1715849114.315052,0.90306604,-0.44985422,1.9484323,-6.4191446,2.5390556,5.0783777
1715849114.316272,0.90306604,-0.44985422,1.9484323,-6.4191446,2.5390556,5.0783777
1715849114.317493,0.90306604,-0.44985422,1.9484323,-6.4191446,2.5390556,5.0783777
1715849114.318722,0.90306604,-0.44985422,1.9484323,-6.4191446,2.5390556,5.0783777
1715849114.319952,0.90306604,-0.44985422,1.9484323,-6.4191446,2.5390556,5.0783777
1715849114.321174,0.90306604,-0.44985422,1.9484323,-6.4191446,2.5390556,5.0783777
1715849114.322414,0.90306604,-0.44985422,1.9484323,-6.4191446,2.5390556,5.0783777
1715849114.323648,0.90306604,-0.44985422,1.9484323,-6.4191446,2.5390556,5.0783777
1715849114.324837,0.90306604,-0.44985422,1.9484323,-6.4191446,2.5390556,5.0783777
1715849114.326012,0.90306604,-0.44985422,1.9484323,-6.4862566,2.632799,5.02618
1715849114.327406,1.1618437,0.12813735,1.8864698,-7.050846,3.167561,4.642685
1715849114.328644,1.6255556,0.95922923,2.4943135,-7.6559157,3.7992623,3.9694383
1715849114.329868,1.6255556,0.95922923,2.4943135,-7.6559157,3.7992623,3.9694383
1715849114.331043,1.6255556,0.95922923,2.4943135,-7.6559157,3.7992623,3.9694383
1715849114.332263,1.6255556,0.95922923,2.4943135,-7.6559157,3.7992623,3.9694383
1715849114.333527,1.6255556,0.95922923,2.4943135,-7.6559157,3.7992623,3.9694383
1715849114.334751,1.6255556,0.95922923,2.4943135,-7.6559157,3.7992623,3.9694383
1715849114.335974,1.6255556,0.95922923,2.4943135,-7.6559157,3.7992623,3.9694383
1715849114.337238,1.6255556,0.95922923,2.4943135,-7.4577765,3.6501255,3.4080443
1715849114.33858,1.8247514,1.5900263,3.095869,-7.4577765,3.6501255,3.4080443
1715849114.339826,1.8247514,1.5900263,3.095869,-7.4577765,3.6501255,3.4080443
1715849114.341029,1.8247514,1.5900263,3.095869,-7.4577765,3.6501255,3.4080443
1715849114.34222,1.8247514,1.5900263,3.095869,-7.4577765,3.6501255,3.4080443
1715849114.343392,1.8247514,1.5900263,3.095869,-7.4577765,3.6501255,3.4080443
1715849114.344589,1.8247514,1.5900263,3.095869,-7.4577765,3.6501255,3.4080443
1715849114.345811,1.8247514,1.5900263,3.095869,-7.4577765,3.6501255,3.4080443
1715849114.34703,1.8247514,1.5900263,3.095869,-7.4577765,3.6501255,3.4080443
1715849114.348248,1.8247514,1.5900263,3.095869,-7.4577765,3.6501255,3.4080443
1715849114.349468,1.8247514,1.5900263,3.095869,-7.4577765,3.6501255,3.4080443
1715849114.350625,1.8247514,1.5900263,3.095869,-6.6332626,3.30498,2.8487809
1715849114.351847,2.0848722,2.2014716,3.7129307,-6.6332626,3.30498,2.8487809
1715849114.353112,2.0848722,2.2014716,3.7129307,-6.6332626,3.30498,2.8487809
1715849114.354332,2.0848722,2.2014716,3.7129307,-6.6332626,3.30498,2.8487809
1715849114.355501,2.0848722,2.2014716,3.7129307,-6.6332626,3.30498,2.8487809
1715849114.356718,2.0848722,2.2014716,3.7129307,-6.6332626,3.30498,2.8487809
1715849114.357914,2.5246537,2.7605996,4.113459,-5.282509,2.9481168,2.1638165
1715849114.359147,2.5246537,2.7605996,4.113459,-5.282509,2.9481168,2.1638165
1715849114.360374,2.5246537,2.7605996,4.113459,-5.282509,2.9481168,2.1638165
1715849114.361561,2.5246537,2.7605996,4.113459,-5.282509,2.9481168,2.1638165
1715849114.362788,2.5246537,2.7605996,4.113459,-5.282509,2.9481168,2.1638165
1715849114.364019,2.5246537,2.7605996,4.113459,-5.282509,2.9481168,2.1638165
1715849114.365264,2.5246537,2.7605996,4.113459,-5.282509,2.9481168,2.1638165
1715849114.36677,2.5246537,2.7605996,4.113459,-5.282509,2.9481168,2.1638165
1715849114.367935,2.5246537,2.7605996,4.113459,-5.282509,2.9481168,2.1638165
1715849114.369158,2.8502774,3.2963467,4.309114,-3.7133756,2.3590262,1.2626036
1715849114.370381,2.8502774,3.2963467,4.309114,-3.7133756,2.3590262,1.2626036
1715849114.371549,2.8502774,3.2963467,4.309114,-3.7133756,2.3590262,1.2626036
1715849114.372771,2.8502774,3.2963467,4.309114,-3.7133756,2.3590262,1.2626036
1715849114.373998,2.8502774,3.2963467,4.309114,-3.7133756,2.3590262,1.2626036
1715849114.375237,2.8502774,3.2963467,4.309114,-3.7133756,2.3590262,1.2626036
1715849114.376456,2.8502774,3.2963467,4.309114,-3.7133756,2.3590262,1.2626036
1715849114.377766,2.8209748,3.6183078,4.1061945,-3.7133756,2.3590262,1.2626036
1715849114.379002,2.8209748,3.6183078,4.1061945,-2.3690128,1.4759226,0.34434643
1715849114.380228,2.8209748,3.6183078,4.1061945,-2.3690128,1.4759226,0.34434643
1715849114.381412,2.8209748,3.6183078,4.1061945,-2.3690128,1.4759226,0.34434643
1715849114.382641,2.8209748,3.6183078,4.1061945,-2.3690128,1.4759226,0.34434643
1715849114.383825,2.8209748,3.6183078,4.1061945,-2.3690128,1.4759226,0.34434643
1715849114.385006,2.8209748,3.6183078,4.1061945,-2.3690128,1.4759226,0.34434643
1715849114.386233,2.8209748,3.6183078,4.1061945,-2.3690128,1.4759226,0.34434643
1715849114.387407,2.8209748,3.6183078,4.1061945,-2.3690128,1.4759226,0.34434643
1715849114.388637,2.8209748,3.6183078,4.1061945,-2.3690128,1.4759226,0.34434643
1715849114.389865,2.8209748,3.6183078,4.1061945,-2.3690128,1.4759226,0.34434643
1715849114.391095,2.8209748,3.6183078,4.1061945,-2.3690128,1.4759226,0.34434643
1715849114.392323,2.8209748,3.6183078,4.1061945,-2.3690128,1.4759226,0.34434643
1715849114.393551,2.8209748,3.6183078,4.1061945,-2.3690128,1.4759226,0.34434643
1715849114.39478,2.8209748,3.6183078,4.1061945,-2.3690128,1.4759226,0.34434643
1715849114.395989,2.8209748,3.6183078,4.1061945,-2.3690128,1.4759226,0.34434643
1715849114.39722,2.8209748,3.6183078,4.1061945,-2.3690128,1.4759226,0.34434643
1715849114.398453,2.8209748,3.6183078,4.1061945,-2.3690128,1.4759226,0.34434643
1715849114.399654,2.8209748,3.6183078,4.1061945,-2.3690128,1.4759226,0.34434643
1715849114.400882,2.8209748,3.6183078,4.1061945,-2.3690128,1.4759226,0.34434643
1715849114.402104,2.8209748,3.6183078,4.1061945,-2.3690128,1.4759226,0.34434643
1715849114.403336,2.8209748,3.6183078,4.1061945,-2.3690128,1.4759226,0.34434643
1715849114.404561,2.8209748,3.6183078,4.1061945,-2.3690128,1.4759226,0.34434643
1715849114.405796,2.8209748,3.6183078,4.1061945,-2.3690128,1.4759226,0.34434643
1715849114.407017,2.8209748,3.6183078,4.1061945,-2.3690128,1.4759226,0.34434643
1715849114.408247,2.8209748,3.6183078,4.1061945,-2.3690128,1.4759226,0.34434643
1715849114.409477,2.8209748,3.6183078,4.1061945,-2.3690128,1.4759226,0.34434643
1715849114.410709,2.8209748,3.6183078,4.1061945,-2.3690128,1.4759226,0.34434643
1715849114.411939,2.8209748,3.6183078,4.1061945,-2.3690128,1.4759226,0.34434643
1715849114.413169,2.8209748,3.6183078,4.1061945,-2.3690128,1.4759226,0.34434643
1715849114.414435,2.8209748,3.6183078,4.1061945,-2.3690128,1.4759226,0.34434643
1715849114.415824,2.8209748,3.6183078,4.1061945,-2.3690128,1.4759226,0.34434643
1715849114.417199,3.171445,3.768178,5.007063,0.27816695,-0.14114742,-1.7307869
1715849114.41836,3.3501291,3.1111307,5.8585443,0.27816695,-0.14114742,-1.7307869
1715849114.419471,3.3501291,3.1111307,5.8585443,0.27816695,-0.14114742,-1.7307869
1715849114.420705,3.3501291,3.1111307,5.8585443,0.27816695,-0.14114742,-1.7307869
1715849114.421928,3.3501291,3.1111307,5.8585443,0.27816695,-0.14114742,-1.7307869
1715849114.423178,3.3501291,3.1111307,5.8585443,0.27816695,-0.14114742,-1.7307869
1715849114.424409,3.3501291,3.1111307,5.8585443,0.27816695,-0.14114742,-1.7307869
1715849114.425614,3.3501291,3.1111307,5.8585443,0.27816695,-0.14114742,-1.7307869
1715849114.426852,3.3501291,3.1111307,5.8585443,0.27816695,-0.14114742,-1.7307869
1715849114.428083,3.1851194,2.6301425,6.082342,1.386041,-0.4159854,-2.216547
1715849114.429313,3.1851194,2.6301425,6.082342,1.386041,-0.4159854,-2.216547
1715849114.430539,3.1851194,2.6301425,6.082342,1.386041,-0.4159854,-2.216547
1715849114.431768,3.1851194,2.6301425,6.082342,1.386041,-0.4159854,-2.216547
1715849114.432999,3.1851194,2.6301425,6.082342,1.386041,-0.4159854,-2.216547
1715849114.43423,3.1851194,2.6301425,6.082342,1.386041,-0.4159854,-2.216547
1715849114.435391,3.1851194,2.6301425,6.082342,1.386041,-0.4159854,-2.216547
1715849114.436556,2.9644961,2.06668,5.933632,2.6419866,-0.9805751,-2.6501093
1715849114.437753,2.9644961,2.06668,5.933632,2.6419866,-0.9805751,-2.6501093
1715849114.438974,2.9644961,2.06668,5.933632,2.6419866,-0.9805751,-2.6501093
1715849114.440156,2.9644961,2.06668,5.933632,2.6419866,-0.9805751,-2.6501093
1715849114.441406,2.9644961,2.06668,5.933632,2.6419866,-0.9805751,-2.6501093
1715849114.442641,2.9644961,2.06668,5.933632,2.6419866,-0.9805751,-2.6501093
1715849114.443819,2.9644961,2.06668,5.933632,2.6419866,-0.9805751,-2.6501093
1715849114.445045,2.9644961,2.06668,5.933632,2.6419866,-0.9805751,-2.6501093
1715849114.446277,2.9644961,2.06668,5.933632,2.6419866,-0.9805751,-2.6501093
1715849114.447455,2.9644961,2.06668,5.933632,2.6419866,-0.9805751,-2.6501093
1715849114.44865,2.9644961,2.06668,5.933632,2.6419866,-0.9805751,-2.6501093
1715849114.45026,2.8131611,1.6700586,5.7858987,3.4579785,-1.4833795,-2.9814062
1715849114.451446,2.8131611,1.6700586,5.7858987,3.4579785,-1.4833795,-2.9814062
1715849114.452627,2.8131611,1.6700586,5.7858987,3.4579785,-1.4833795,-2.9814062
1715849114.453853,2.8131611,1.6700586,5.7858987,3.4579785,-1.4833795,-2.9814062
1715849114.455085,2.8131611,1.6700586,5.7858987,3.4579785,-1.4833795,-2.9814062
1715849114.456322,2.8131611,1.6700586,5.7858987,4.203663,-1.699628,-3.3020506
1715849114.457548,2.536863,1.2477366,5.731689,4.203663,-1.699628,-3.3020506
1715849114.458772,2.536863,1.2477366,5.731689,4.203663,-1.699628,-3.3020506
1715849114.460009,2.536863,1.2477366,5.731689,4.203663,-1.699628,-3.3020506
1715849114.461184,2.536863,1.2477366,5.731689,4.203663,-1.699628,-3.3020506
1715849114.462415,2.536863,1.2477366,5.731689,4.203663,-1.699628,-3.3020506
1715849114.463594,2.536863,1.2477366,5.731689,4.203663,-1.699628,-3.3020506
1715849114.464826,2.536863,1.2477366,5.731689,4.203663,-1.699628,-3.3020506
1715849114.466055,2.536863,1.2477366,5.731689,4.203663,-1.699628,-3.3020506
1715849114.46731,2.536863,1.2477366,5.731689,4.203663,-1.699628,-3.3020506
1715849114.468478,2.3679464,0.97033966,5.5917087,5.1016803,-1.5568826,-3.574758
1715849114.469698,2.3679464,0.97033966,5.5917087,5.1016803,-1.5568826,-3.574758
1715849114.470916,2.3679464,0.97033966,5.5917087,5.1016803,-1.5568826,-3.574758
1715849114.472243,2.3679464,0.97033966,5.5917087,5.1016803,-1.5568826,-3.574758
1715849114.47349,2.3679464,0.97033966,5.5917087,5.1016803,-1.5568826,-3.574758
1715849114.47472,2.3679464,0.97033966,5.5917087,5.1016803,-1.5568826,-3.574758
1715849114.475951,2.3679464,0.97033966,5.5917087,5.1016803,-1.5568826,-3.574758
1715849114.477177,2.3679464,0.97033966,5.5917087,5.1016803,-1.5568826,-3.574758
1715849114.478411,2.3679464,0.97033966,5.5917087,5.1016803,-1.5568826,-3.574758
1715849114.47962,2.3679464,0.97033966,5.5917087,5.1016803,-1.5568826,-3.574758
1715849114.480851,2.3679464,0.97033966,5.5917087,5.1016803,-1.5568826,-3.574758
1715849114.48208,2.3679464,0.97033966,5.5917087,5.1016803,-1.5568826,-3.574758
1715849114.483373,2.3679464,0.97033966,5.5917087,5.1016803,-1.5568826,-3.574758
1715849114.484596,2.3679464,0.97033966,5.5917087,5.1016803,-1.5568826,-3.574758
1715849114.485818,2.3679464,0.97033966,5.5917087,5.1016803,-1.5568826,-3.574758
1715849114.487039,2.3679464,0.97033966,5.5917087,5.1016803,-1.5568826,-3.574758
1715849114.488257,2.3679464,0.97033966,5.5917087,5.1016803,-1.5568826,-3.574758
1715849114.48949,2.3679464,0.97033966,5.5917087,5.1016803,-1.5568826,-3.574758
1715849114.49071,2.3679464,0.97033966,5.5917087,5.1016803,-1.5568826,-3.574758
1715849114.491939,2.3679464,0.97033966,5.5917087,5.1016803,-1.5568826,-3.574758
1715849114.493172,2.3679464,0.97033966,5.5917087,5.1016803,-1.5568826,-3.574758
1715849114.494395,2.3679464,0.97033966,5.5917087,5.1016803,-1.5568826,-3.574758
1715849114.495567,2.3679464,0.97033966,5.5917087,5.1016803,-1.5568826,-3.574758
1715849114.496853,2.3679464,0.97033966,5.5917087,5.1016803,-1.5568826,-3.574758
1715849114.498085,2.3679464,0.97033966,5.5917087,5.1016803,-1.5568826,-3.574758
1715849114.499329,2.3679464,0.97033966,5.5917087,5.1016803,-1.5568826,-3.574758
1715849114.500553,2.3679464,0.97033966,5.5917087,5.1016803,-1.5568826,-3.574758
1715849114.501722,2.3679464,0.97033966,5.5917087,5.1016803,-1.5568826,-3.574758
1715849114.50294,2.3679464,0.97033966,5.5917087,5.1016803,-1.5568826,-3.574758
1715849114.504159,2.3679464,0.97033966,5.5917087,5.1016803,-1.5568826,-3.574758
1715849114.50538,2.3679464,0.97033966,5.5917087,5.1016803,-1.5568826,-3.574758
1715849114.506579,1.7377596,0.43117392,4.397754,6.191445,-1.6421037,-3.8261602
1715849114.507778,1.7377596,0.43117392,4.397754,6.891323,-2.1704745,-3.969971
1715849114.509272,1.5507731,0.28228062,3.223701,6.856169,-1.8796575,-4.032821
1715849114.51047,1.5507731,0.28228062,3.223701,6.856169,-1.8796575,-4.032821
1715849114.511656,1.5507731,0.28228062,3.223701,6.856169,-1.8796575,-4.032821
1715849114.512875,1.5507731,0.28228062,3.223701,6.856169,-1.8796575,-4.032821
1715849114.514114,1.5507731,0.28228062,3.223701,6.856169,-1.8796575,-4.032821
1715849114.515388,1.5507731,0.28228062,3.223701,6.856169,-1.8796575,-4.032821
1715849114.516638,1.5507731,0.28228062,3.223701,6.856169,-1.8796575,-4.032821
1715849114.517812,1.5029124,0.22361462,2.961688,6.758165,-1.3821794,-4.151066
1715849114.518982,1.5029124,0.22361462,2.961688,6.758165,-1.3821794,-4.151066
1715849114.520188,1.5029124,0.22361462,2.961688,6.758165,-1.3821794,-4.151066
1715849114.521418,1.5029124,0.22361462,2.961688,6.758165,-1.3821794,-4.151066
1715849114.522651,1.5029124,0.22361462,2.961688,6.758165,-1.3821794,-4.151066
1715849114.523874,1.5029124,0.22361462,2.961688,6.758165,-1.3821794,-4.151066
1715849114.525115,1.5029124,0.22361462,2.961688,6.758165,-1.3821794,-4.151066
1715849114.526349,1.5029124,0.22361462,2.961688,6.758165,-1.3821794,-4.151066
1715849114.527521,1.0962794,0.03546822,2.5039587,6.7038364,-0.71212864,-4.321508
1715849114.528752,1.0962794,0.03546822,2.5039587,6.7038364,-0.71212864,-4.321508
1715849114.53,1.0962794,0.03546822,2.5039587,6.7038364,-0.71212864,-4.321508
1715849114.531252,1.0962794,0.03546822,2.5039587,6.7038364,-0.71212864,-4.321508
1715849114.53247,1.0962794,0.03546822,2.5039587,6.7038364,-0.71212864,-4.321508
1715849114.533695,1.0962794,0.03546822,2.5039587,6.7038364,-0.71212864,-4.321508
1715849114.5349,1.0962794,0.03546822,2.5039587,6.7038364,-0.71212864,-4.321508
1715849114.536133,1.0962794,0.03546822,2.5039587,6.7038364,-0.71212864,-4.321508
1715849114.537683,0.7814607,-0.10609942,2.2719808,6.855104,-0.559796,-4.3481393
1715849114.538907,0.7814607,-0.10609942,2.2719808,6.855104,-0.559796,-4.3481393
1715849114.540126,0.7814607,-0.10609942,2.2719808,6.855104,-0.559796,-4.3481393
1715849114.541348,0.7814607,-0.10609942,2.2719808,6.855104,-0.559796,-4.3481393
1715849114.542519,0.7814607,-0.10609942,2.2719808,6.855104,-0.559796,-4.3481393
1715849114.543718,0.7814607,-0.10609942,2.2719808,6.855104,-0.559796,-4.3481393
1715849114.544938,0.7814607,-0.10609942,2.2719808,6.855104,-0.559796,-4.3481393
1715849114.546155,0.7814607,-0.10609942,2.2719808,6.855104,-0.559796,-4.3481393
1715849114.547384,0.7814607,-0.10609942,2.2719808,6.855104,-0.559796,-4.3481393
1715849114.548602,0.7814607,-0.10609942,2.2719808,6.855104,-0.559796,-4.3481393
1715849114.549821,0.7814607,-0.10609942,2.2719808,6.855104,-0.559796,-4.3481393
1715849114.551057,0.7814607,-0.10609942,2.2719808,6.855104,-0.559796,-4.3481393
1715849114.552209,0.7814607,-0.10609942,2.2719808,6.855104,-0.559796,-4.3481393
1715849114.553431,0.7814607,-0.10609942,2.2719808,6.855104,-0.559796,-4.3481393
1715849114.554623,0.7814607,-0.10609942,2.2719808,6.855104,-0.559796,-4.3481393
1715849114.55582,0.7814607,-0.10609942,2.2719808,6.855104,-0.559796,-4.3481393
1715849114.557089,0.5950237,-0.2733678,2.1078258,7.056439,-0.7866971,-4.293811
1715849114.558318,0.5950237,-0.2733678,2.1078258,7.22262,-1.1478214,-4.2639837
1715849114.559498,0.5222558,-0.41688895,2.055997,7.22262,-1.1478214,-4.2639837
1715849114.560725,0.5222558,-0.41688895,2.055997,7.22262,-1.1478214,-4.2639837
1715849114.561953,0.5222558,-0.41688895,2.055997,7.22262,-1.1478214,-4.2639837
1715849114.563244,0.5222558,-0.41688895,2.055997,7.22262,-1.1478214,-4.2639837
1715849114.564476,0.5222558,-0.41688895,2.055997,7.22262,-1.1478214,-4.2639837
1715849114.565707,0.5222558,-0.41688895,2.055997,7.22262,-1.1478214,-4.2639837
1715849114.566914,0.5222558,-0.41688895,2.055997,7.22262,-1.1478214,-4.2639837
1715849114.568143,0.5222558,-0.41688895,2.055997,7.22262,-1.1478214,-4.2639837
1715849114.569369,0.5222558,-0.41688895,2.055997,7.22262,-1.1478214,-4.2639837
1715849114.570606,0.5222558,-0.41688895,2.055997,7.22262,-1.1478214,-4.2639837
1715849114.57184,0.5222558,-0.41688895,2.055997,7.22262,-1.1478214,-4.2639837
1715849114.573112,0.5222558,-0.41688895,2.055997,7.22262,-1.1478214,-4.2639837
1715849114.574345,0.5222558,-0.41688895,2.055997,7.22262,-1.1478214,-4.2639837
1715849114.575538,0.5222558,-0.41688895,2.055997,7.22262,-1.1478214,-4.2639837
1715849114.576711,0.5222558,-0.41688895,2.055997,7.22262,-1.1478214,-4.2639837
1715849114.577946,0.5222558,-0.41688895,2.055997,7.22262,-1.1478214,-4.2639837
1715849114.579179,0.5222558,-0.41688895,2.055997,7.22262,-1.1478214,-4.2639837
1715849114.580408,0.5222558,-0.41688895,2.055997,7.22262,-1.1478214,-4.2639837
1715849114.581649,0.5222558,-0.41688895,2.055997,7.22262,-1.1478214,-4.2639837
1715849114.582887,0.5222558,-0.41688895,2.055997,7.22262,-1.1478214,-4.2639837
1715849114.584086,0.5222558,-0.41688895,2.055997,7.22262,-1.1478214,-4.2639837
1715849114.585259,0.5222558,-0.41688895,2.055997,7.22262,-1.1478214,-4.2639837
1715849114.58644,0.5222558,-0.41688895,2.055997,7.22262,-1.1478214,-4.2639837
1715849114.58762,0.5222558,-0.41688895,2.055997,7.22262,-1.1478214,-4.2639837
1715849114.588911,0.5222558,-0.41688895,2.055997,7.22262,-1.1478214,-4.2639837
1715849114.590104,0.5222558,-0.41688895,2.055997,7.22262,-1.1478214,-4.2639837
1715849114.5913,0.5222558,-0.41688895,2.055997,7.22262,-1.1478214,-4.2639837
1715849114.592999,0.40217668,-0.93523777,2.055997,8.546742,-2.9459863,-4.5239077
1715849114.594167,0.4075488,-1.1233841,1.9300573,8.546742,-2.9459863,-4.5239077
1715849114.595288,0.4075488,-1.1233841,1.9300573,8.546742,-2.9459863,-4.5239077
1715849114.596414,0.4075488,-1.1233841,1.9300573,8.546742,-2.9459863,-4.5239077
1715849114.597616,0.4075488,-1.1233841,1.9300573,8.546742,-2.9459863,-4.5239077
1715849114.598865,0.4075488,-1.1233841,1.9300573,8.546742,-2.9459863,-4.5239077
1715849114.600073,0.4075488,-1.1233841,1.9300573,8.546742,-2.9459863,-4.5239077
1715849114.601291,0.4075488,-1.1233841,1.9300573,8.546742,-2.9459863,-4.5239077
1715849114.602799,0.4246419,-1.2276522,1.6936839,8.784296,-3.3028495,-4.717786
1715849114.603991,0.4246419,-1.2276522,1.6936839,8.784296,-3.3028495,-4.717786
1715849114.605209,0.4246419,-1.2276522,1.6936839,8.784296,-3.3028495,-4.717786
1715849114.606679,0.4246419,-1.2276522,1.6936839,8.784296,-3.3028495,-4.717786
1715849114.607858,0.41389766,-1.2436465,1.3914409,8.784296,-3.3028495,-4.717786
1715849114.609,0.41389766,-1.2436465,1.3914409,8.693748,-3.4445295,-4.8871627
1715849114.610178,0.41389766,-1.2436465,1.3914409,8.693748,-3.4445295,-4.8871627
1715849114.611316,0.41389766,-1.2436465,1.3914409,8.693748,-3.4445295,-4.8871627
1715849114.612503,0.41389766,-1.2436465,1.3914409,8.693748,-3.4445295,-4.8871627
1715849114.613679,0.41389766,-1.2436465,1.3914409,8.693748,-3.4445295,-4.8871627
1715849114.614832,0.41389766,-1.2436465,1.3914409,8.693748,-3.4445295,-4.8871627
1715849114.615987,0.41389766,-1.2436465,1.3914409,8.693748,-3.4445295,-4.8871627
1715849114.617131,0.41389766,-1.2436465,1.3914409,8.693748,-3.4445295,-4.8871627
1715849114.618237,0.41389766,-1.2436465,1.3914409,8.613854,-3.454117,-4.920186
1715849114.619381,0.41780466,-1.2334516,1.3183067,8.613854,-3.454117,-4.920186
1715849114.620515,0.41780466,-1.2334516,1.3183067,8.613854,-3.454117,-4.920186
1715849114.621625,0.41780466,-1.2334516,1.3183067,8.613854,-3.454117,-4.920186
1715849114.622753,0.41780466,-1.2334516,1.3183067,8.613854,-3.454117,-4.920186
1715849114.62388,0.41780466,-1.2334516,1.3183067,8.613854,-3.454117,-4.920186
1715849114.625002,0.41780466,-1.2334516,1.3183067,8.613854,-3.454117,-4.920186
1715849114.626123,0.41780466,-1.2334516,1.3183067,8.613854,-3.454117,-4.920186
1715849114.627265,0.41780466,-1.2334516,1.3183067,8.613854,-3.454117,-4.920186
1715849114.62837,0.5647444,-1.1044596,1.1018347,7.5475254,-3.24426,-5.1694574
1715849114.629468,0.5647444,-1.1044596,1.1018347,7.5475254,-3.24426,-5.1694574
1715849114.630623,0.5647444,-1.1044596,1.1018347,7.5475254,-3.24426,-5.1694574
1715849114.631772,0.5647444,-1.1044596,1.1018347,7.5475254,-3.24426,-5.1694574
1715849114.632924,0.5647444,-1.1044596,1.1018347,7.5475254,-3.24426,-5.1694574
1715849114.634075,0.5647444,-1.1044596,1.1018347,7.5475254,-3.24426,-5.1694574
1715849114.635246,0.5647444,-1.1044596,1.1018347,7.5475254,-3.24426,-5.1694574
1715849114.636393,0.5647444,-1.1044596,1.1018347,7.5475254,-3.24426,-5.1694574
1715849114.63754,0.5647444,-1.1044596,1.1018347,7.5475254,-3.24426,-5.1694574
1715849114.638619,0.6442885,-1.0278459,1.2359545,6.8604302,-2.9087021,-5.2738533
1715849114.639697,0.6442885,-1.0278459,1.2359545,6.8604302,-2.9087021,-5.2738533
1715849114.640848,0.6442885,-1.0278459,1.2359545,6.8604302,-2.9087021,-5.2738533
1715849114.641994,0.6442885,-1.0278459,1.2359545,6.8604302,-2.9087021,-5.2738533
1715849114.64314,0.6442885,-1.0278459,1.2359545,6.8604302,-2.9087021,-5.2738533
1715849114.644286,0.6442885,-1.0278459,1.2359545,6.8604302,-2.9087021,-5.2738533
1715849114.645448,0.6442885,-1.0278459,1.2359545,6.8604302,-2.9087021,-5.2738533
1715849114.646524,0.6442885,-1.0278459,1.2359545,6.8604302,-2.9087021,-5.2738533
1715849114.647653,0.6442885,-1.0278459,1.2359545,6.8604302,-2.9087021,-5.2738533
1715849114.648812,0.6442885,-1.0278459,1.2359545,6.8604302,-2.9087021,-5.2738533
1715849114.649909,0.6442885,-1.0278459,1.2359545,6.8604302,-2.9087021,-5.2738533
1715849114.651058,0.6442885,-1.0278459,1.2359545,6.8604302,-2.9087021,-5.2738533
1715849114.652203,0.6442885,-1.0278459,1.2359545,6.8604302,-2.9087021,-5.2738533
1715849114.653349,0.6442885,-1.0278459,1.2359545,6.8604302,-2.9087021,-5.2738533
1715849114.654494,0.6442885,-1.0278459,1.2359545,6.8604302,-2.9087021,-5.2738533
1715849114.655572,0.6442885,-1.0278459,1.2359545,6.8604302,-2.9087021,-5.2738533
1715849114.656716,0.6442885,-1.0278459,1.2359545,6.8604302,-2.9087021,-5.2738533
1715849114.657794,0.6442885,-1.0278459,1.2359545,6.8604302,-2.9087021,-5.2738533
1715849114.658943,0.6442885,-1.0278459,1.2359545,6.8604302,-2.9087021,-5.2738533
1715849114.660088,0.6442885,-1.0278459,1.2359545,6.8604302,-2.9087021,-5.2738533
1715849114.661234,0.6442885,-1.0278459,1.2359545,6.8604302,-2.9087021,-5.2738533
1715849114.662382,0.6442885,-1.0278459,1.2359545,6.8604302,-2.9087021,-5.2738533
1715849114.663536,0.6442885,-1.0278459,1.2359545,6.8604302,-2.9087021,-5.2738533
1715849114.66469,0.6442885,-1.0278459,1.2359545,6.8604302,-2.9087021,-5.2738533
1715849114.665845,0.6442885,-1.0278459,1.2359545,6.8604302,-2.9087021,-5.2738533
1715849114.666992,0.6442885,-1.0278459,1.2359545,6.8604302,-2.9087021,-5.2738533
1715849114.668145,0.6442885,-1.0278459,1.2359545,6.8604302,-2.9087021,-5.2738533
1715849114.669295,0.6442885,-1.0278459,1.2359545,6.8604302,-2.9087021,-5.2738533
1715849114.670445,0.6442885,-1.0278459,1.2359545,6.8604302,-2.9087021,-5.2738533
1715849114.671589,0.6442885,-1.0278459,1.2359545,6.8604302,-2.9087021,-5.2738533
1715849114.672737,0.6442885,-1.0278459,1.2359545,6.8604302,-2.9087021,-5.2738533
1715849114.6739,0.6442885,-1.0278459,1.2359545,6.8604302,-2.9087021,-5.2738533
1715849114.675052,0.6442885,-1.0278459,1.2359545,6.8604302,-2.9087021,-5.2738533
1715849114.67621,0.6442885,-1.0278459,1.2359545,6.8604302,-2.9087021,-5.2738533
1715849114.677327,0.6442885,-1.0278459,1.2359545,6.8604302,-2.9087021,-5.2738533
1715849114.678485,0.6442885,-1.0278459,1.2359545,6.8604302,-2.9087021,-5.2738533
1715849114.679627,0.6442885,-1.0278459,1.2359545,6.8604302,-2.9087021,-5.2738533
1715849114.680785,0.6442885,-1.0278459,1.2359545,6.8604302,-2.9087021,-5.2738533
1715849114.681946,0.6442885,-1.0278459,1.2359545,6.8604302,-2.9087021,-5.2738533
1715849114.683253,1.3418708,-0.97742116,2.2376113,6.737925,-3.5563822,-6.019538
1715849114.684421,1.3418708,-0.97742116,2.2376113,6.737925,-3.5563822,-6.019538
1715849114.685543,1.3418708,-0.97742116,2.2376113,6.737925,-3.5563822,-6.019538
1715849114.686697,1.3418708,-0.97742116,2.2376113,6.737925,-3.5563822,-6.019538
1715849114.687868,1.6601692,-1.0220464,2.1945121,7.105441,-4.4789004,-6.4935803
1715849114.68904,1.6601692,-1.0220464,2.1945121,7.105441,-4.4789004,-6.4935803
1715849114.690211,1.6601692,-1.0220464,2.1945121,7.105441,-4.4789004,-6.4935803
1715849114.691356,1.6601692,-1.0220464,2.1945121,7.105441,-4.4789004,-6.4935803
1715849114.692479,1.6601692,-1.0220464,2.1945121,7.105441,-4.4789004,-6.4935803
1715849114.693654,1.6601692,-1.0220464,2.1945121,7.105441,-4.4789004,-6.4935803
1715849114.694834,1.6601692,-1.0220464,2.1945121,7.105441,-4.4789004,-6.4935803
1715849114.696017,1.6601692,-1.0220464,2.1945121,7.105441,-4.4789004,-6.4935803
1715849114.6972,1.6601692,-1.0220464,2.1945121,7.105441,-4.4789004,-6.4935803
1715849114.698386,1.6601692,-1.0220464,2.1945121,7.105441,-4.4789004,-6.4935803
1715849114.699546,1.6601692,-1.0220464,2.1945121,7.105441,-4.4789004,-6.4935803
1715849114.700765,1.6601692,-1.0220464,2.1945121,7.105441,-4.4789004,-6.4935803
1715849114.702079,1.6601692,-1.0220464,2.1945121,7.105441,-4.4789004,-6.4935803
1715849114.703285,1.9530718,-1.0317528,2.006549,7.105441,-4.4789004,-6.4935803
1715849114.704512,1.9530718,-1.0317528,2.006549,7.26523,-4.9859657,-7.0443215
1715849114.705739,1.9530718,-1.0317528,2.006549,7.26523,-4.9859657,-7.0443215
1715849114.706938,1.9530718,-1.0317528,2.006549,7.26523,-4.9859657,-7.0443215
1715849114.708298,2.0726628,-1.0448169,1.776036,7.26523,-4.9859657,-7.0443215
1715849114.709532,2.0726628,-1.0448169,1.776036,7.247121,-5.152147,-7.5449953
1715849114.710761,2.0726628,-1.0448169,1.776036,7.247121,-5.152147,-7.5449953
1715849114.711991,2.0726628,-1.0448169,1.776036,7.247121,-5.152147,-7.5449953
1715849114.71322,2.0726628,-1.0448169,1.776036,7.247121,-5.152147,-7.5449953
1715849114.714565,2.0726628,-1.0448169,1.776036,7.247121,-5.152147,-7.5449953
1715849114.715742,2.0726628,-1.0448169,1.776036,7.247121,-5.152147,-7.5449953
1715849114.716947,2.0726628,-1.0448169,1.776036,7.247121,-5.152147,-7.5449953
1715849114.718378,2.0726628,-1.0448169,1.776036,7.247121,-5.152147,-7.5449953
1715849114.719554,2.1282763,-1.0589187,1.6002212,7.134203,-5.158539,-7.859248
1715849114.720726,2.1282763,-1.0589187,1.6002212,7.134203,-5.158539,-7.859248
1715849114.721924,2.1282763,-1.0589187,1.6002212,7.134203,-5.158539,-7.859248
1715849114.723415,2.1282763,-1.0589187,1.6002212,7.134203,-5.158539,-7.859248
1715849114.72464,2.1282763,-1.0589187,1.6002212,7.134203,-5.158539,-7.859248
1715849114.726119,2.1282763,-1.0589187,1.6002212,7.134203,-5.158539,-7.859248
1715849114.727356,1.9589323,-1.1316255,1.1744804,6.4247375,-4.7867618,-8.560191
1715849114.728626,1.9589323,-1.1316255,1.1744804,6.4247375,-4.7867618,-8.560191
1715849114.729849,1.9589323,-1.1316255,1.1744804,6.4247375,-4.7867618,-8.560191
1715849114.73107,1.9589323,-1.1316255,1.1744804,6.4247375,-4.7867618,-8.560191
1715849114.732289,1.9589323,-1.1316255,1.1744804,6.4247375,-4.7867618,-8.560191
1715849114.733467,1.9589323,-1.1316255,1.1744804,6.4247375,-4.7867618,-8.560191
1715849114.734705,1.9589323,-1.1316255,1.1744804,6.4247375,-4.7867618,-8.560191
1715849114.735944,1.9589323,-1.1316255,1.1744804,6.4247375,-4.7867618,-8.560191
1715849114.737168,1.6889832,-1.1393784,1.0199708,5.812211,-4.3659825,-8.768983
1715849114.738378,1.6889832,-1.1393784,1.0199708,5.812211,-4.3659825,-8.768983
1715849114.74236,1.6889832,-1.1393784,1.0199708,5.812211,-4.3659825,-8.768983
1715849114.743517,1.6889832,-1.1393784,1.0199708,5.812211,-4.3659825,-8.768983
1715849114.744727,1.6889832,-1.1393784,1.0199708,5.812211,-4.3659825,-8.768983
1715849114.745891,1.6889832,-1.1393784,1.0199708,5.812211,-4.3659825,-8.768983
1715849114.74711,1.6889832,-1.1393784,1.0199708,5.812211,-4.3659825,-8.768983
1715849114.74828,1.6889832,-1.1393784,1.0199708,5.812211,-4.3659825,-8.768983
1715849114.7495,1.6889832,-1.1393784,1.0199708,5.812211,-4.3659825,-8.768983
1715849114.750719,1.6889832,-1.1393784,1.0199708,5.812211,-4.3659825,-8.768983
1715849114.751882,1.6889832,-1.1393784,1.0199708,5.812211,-4.3659825,-8.768983
1715849114.753103,1.6889832,-1.1393784,1.0199708,5.812211,-4.3659825,-8.768983
1715849114.754358,1.6889832,-1.1393784,1.0199708,5.812211,-4.3659825,-8.768983
1715849114.75573,1.6889832,-1.1393784,1.0199708,5.812211,-4.3659825,-8.768983
1715849114.756946,1.6889832,-1.1393784,1.0199708,5.812211,-4.3659825,-8.768983
1715849114.758165,1.6889832,-1.1393784,1.0199708,5.812211,-4.3659825,-8.768983
1715849114.759342,1.6889832,-1.1393784,1.0199708,5.812211,-4.3659825,-8.768983
1715849114.760522,1.6889832,-1.1393784,1.0199708,5.812211,-4.3659825,-8.768983
1715849114.761706,1.6889832,-1.1393784,1.0199708,5.812211,-4.3659825,-8.768983
1715849114.762878,1.6889832,-1.1393784,1.0199708,5.812211,-4.3659825,-8.768983
1715849114.764047,1.6889832,-1.1393784,1.0199708,5.812211,-4.3659825,-8.768983
1715849114.76519,1.6889832,-1.1393784,1.0199708,5.812211,-4.3659825,-8.768983
1715849114.766427,1.6889832,-1.1393784,1.0199708,5.812211,-4.3659825,-8.768983
1715849114.76763,1.6889832,-1.1393784,1.0199708,5.812211,-4.3659825,-8.768983
1715849114.768852,1.6889832,-1.1393784,1.0199708,5.812211,-4.3659825,-8.768983
1715849114.770233,1.6889832,-1.1393784,1.0199708,5.812211,-4.3659825,-8.768983
1715849114.771398,1.6889832,-1.1393784,1.0199708,5.812211,-4.3659825,-8.768983
1715849114.77263,1.6889832,-1.1393784,1.0199708,5.812211,-4.3659825,-8.768983
1715849114.77379,0.7135767,-1.0220464,0.36560962,4.1578565,-2.730803,-7.8091807
1715849114.775009,0.7135767,-1.0220464,0.36560962,4.1578565,-2.730803,-7.8091807
1715849114.776202,0.7135767,-1.0220464,0.36560962,4.1578565,-2.730803,-7.8091807
1715849114.777746,0.5812881,-1.0700293,0.13796589,3.1224205,-2.1864533,-6.7258077
1715849114.778908,0.5812881,-1.0700293,0.13796589,3.1224205,-2.1864533,-6.7258077
1715849114.780098,0.5812881,-1.0700293,0.13796589,3.1224205,-2.1864533,-6.7258077
1715849114.781272,0.5812881,-1.0700293,0.13796589,3.1224205,-2.1864533,-6.7258077
1715849114.782476,0.5812881,-1.0700293,0.13796589,3.1224205,-2.1864533,-6.7258077
1715849114.783676,0.5812881,-1.0700293,0.13796589,3.1224205,-2.1864533,-6.7258077
1715849114.784901,0.5812881,-1.0700293,0.13796589,3.1224205,-2.1864533,-6.7258077
1715849114.78607,0.5812881,-1.0700293,0.13796589,3.1224205,-2.1864533,-6.7258077
1715849114.787402,0.5812881,-1.0700293,0.13796589,3.1224205,-2.1864533,-6.7258077
1715849114.78876,0.5676136,-1.1141661,0.06629688,2.9562395,-2.1449082,-6.57454
1715849114.789925,0.5676136,-1.1141661,0.06629688,2.9562395,-2.1449082,-6.57454
1715849114.791062,0.5676136,-1.1141661,0.06629688,2.9562395,-2.1449082,-6.57454
1715849114.792282,0.5676136,-1.1141661,0.06629688,2.9562395,-2.1449082,-6.57454
1715849114.793418,0.5676136,-1.1141661,0.06629688,2.9562395,-2.1449082,-6.57454
1715849114.794636,0.5676136,-1.1141661,0.06629688,2.9562395,-2.1449082,-6.57454
1715849114.795855,0.5676136,-1.1141661,0.06629688,2.9562395,-2.1449082,-6.57454
1715849114.797068,0.5676136,-1.1141661,0.06629688,2.9562395,-2.1449082,-6.57454
1715849114.798244,0.47927883,-1.3081119,-0.13375366,1.8441043,-2.3046978,-5.9822536
1715849114.799383,0.47927883,-1.3081119,-0.13375366,1.8441043,-2.3046978,-5.9822536
1715849114.80062,0.47927883,-1.3081119,-0.13375366,1.8441043,-2.3046978,-5.9822536
1715849114.801803,0.47927883,-1.3081119,-0.13375366,1.8441043,-2.3046978,-5.9822536
1715849114.803028,0.47927883,-1.3081119,-0.13375366,1.8441043,-2.3046978,-5.9822536
1715849114.804217,0.47927883,-1.3081119,-0.13375366,1.8441043,-2.3046978,-5.9822536
1715849114.805464,0.47927883,-1.3081119,-0.13375366,1.8441043,-2.3046978,-5.9822536
1715849114.8067,0.47927883,-1.3081119,-0.13375366,1.8441043,-2.3046978,-5.9822536
1715849114.807924,0.18100391,-1.6242735,-0.24901012,1.0238514,-2.168344,-5.778788
1715849114.809147,0.18100391,-1.6242735,-0.24901012,1.0238514,-2.168344,-5.778788
1715849114.81037,0.18100391,-1.6242735,-0.24901012,1.0238514,-2.168344,-5.778788
1715849114.811549,0.18100391,-1.6242735,-0.24901012,1.0238514,-2.168344,-5.778788
1715849114.812775,0.18100391,-1.6242735,-0.24901012,1.0238514,-2.168344,-5.778788
1715849114.813997,0.18100391,-1.6242735,-0.24901012,1.0238514,-2.168344,-5.778788
1715849114.815179,0.18100391,-1.6242735,-0.24901012,1.0238514,-2.168344,-5.778788
1715849114.816409,0.18100391,-1.6242735,-0.24901012,1.0238514,-2.168344,-5.778788
1715849114.81764,0.18100391,-1.6242735,-0.24901012,1.0238514,-2.168344,-5.778788
1715849114.818873,0.18100391,-1.6242735,-0.24901012,1.0238514,-2.168344,-5.778788
1715849114.820079,0.18100391,-1.6242735,-0.24901012,1.0238514,-2.168344,-5.778788
1715849114.821282,-0.13827112,-1.7600417,-0.2867981,0.6211818,-2.0298595,-5.661609
1715849114.822462,-0.13827112,-1.7600417,-0.2867981,0.6211818,-2.0298595,-5.661609
1715849114.823638,-0.13827112,-1.7600417,-0.2867981,0.6211818,-2.0298595,-5.661609
1715849114.824904,-0.13827112,-1.7600417,-0.2867981,0.6211818,-2.0298595,-5.661609
1715849114.826128,-0.13827112,-1.7600417,-0.2867981,0.6211818,-2.0298595,-5.661609
1715849114.827308,-1.2258818,-2.1818755,-0.268423,-0.40573224,-1.6303859,-4.905272
1715849114.82853,-1.2258818,-2.1818755,-0.268423,-0.40573224,-1.6303859,-4.905272
1715849114.829748,-1.2258818,-2.1818755,-0.268423,-0.40573224,-1.6303859,-4.905272
1715849114.830967,-1.2258818,-2.1818755,-0.268423,-0.40573224,-1.6303859,-4.905272
1715849114.832147,-1.2258818,-2.1818755,-0.268423,-0.40573224,-1.6303859,-4.905272
1715849114.833414,-1.2258818,-2.1818755,-0.268423,-0.40573224,-1.6303859,-4.905272
1715849114.834638,-1.2258818,-2.1818755,-0.268423,-0.40573224,-1.6303859,-4.905272
1715849114.835983,-1.2258818,-2.1818755,-0.268423,-0.40573224,-1.6303859,-4.905272
1715849114.837251,-1.2258818,-2.1818755,-0.268423,-0.40573224,-1.6303859,-4.905272
1715849114.838482,-1.2258818,-2.1818755,-0.268423,-0.40573224,-1.6303859,-4.905272
1715849114.839689,-1.2258818,-2.1818755,-0.268423,-0.40573224,-1.6303859,-4.905272
1715849114.840917,-1.2258818,-2.1818755,-0.268423,-0.40573224,-1.6303859,-4.905272
1715849114.842132,-1.2258818,-2.1818755,-0.268423,-0.40573224,-1.6303859,-4.905272
1715849114.843746,-1.2258818,-2.1818755,-0.268423,-0.40573224,-1.6303859,-4.905272
1715849114.844952,-1.2258818,-2.1818755,-0.268423,-0.40573224,-1.6303859,-4.905272
1715849114.846227,-1.2258818,-2.1818755,-0.268423,-0.40573224,-1.6303859,-4.905272
1715849114.847393,-1.2258818,-2.1818755,-0.268423,-0.40573224,-1.6303859,-4.905272
1715849114.8486,-1.2258818,-2.1818755,-0.268423,-0.40573224,-1.6303859,-4.905272
1715849114.850013,-1.2258818,-2.1818755,-0.268423,-0.40573224,-1.6303859,-4.905272
1715849114.851261,-1.2258818,-2.1818755,-0.268423,-0.40573224,-1.6303859,-4.905272
1715849114.85248,-1.2258818,-2.1818755,-0.268423,-0.40573224,-1.6303859,-4.905272
1715849114.853702,-1.2258818,-2.1818755,-0.268423,-0.40573224,-1.6303859,-4.905272
1715849114.85492,-1.2258818,-2.1818755,-0.268423,-0.40573224,-1.6303859,-4.905272
1715849114.856134,-1.2258818,-2.1818755,-0.268423,-0.40573224,-1.6303859,-4.905272
1715849114.857349,-1.2258818,-2.1818755,-0.268423,-0.40573224,-1.6303859,-4.905272
1715849114.858573,-1.2258818,-2.1818755,-0.268423,-0.40573224,-1.6303859,-4.905272
1715849114.859789,-1.2258818,-2.1818755,-0.268423,-0.40573224,-1.6303859,-4.905272
1715849114.861021,-1.2258818,-2.1818755,-0.268423,-0.40573224,-1.6303859,-4.905272
1715849114.862383,-2.900702,-3.0770054,-0.38947892,-2.0281286,-0.9656614,-1.9502312
1715849114.863586,-2.900702,-3.0770054,-0.38947892,-2.0281286,-0.9656614,-1.9502312
1715849114.864825,-2.900702,-3.0770054,-0.38947892,-2.0281286,-0.9656614,-1.9502312
1715849114.866053,-2.900702,-3.0770054,-0.38947892,-2.0281286,-0.9656614,-1.9502312
1715849114.867257,-2.900702,-3.0770054,-0.38947892,-2.0281286,-0.9656614,-1.9502312
1715849114.868486,-2.900702,-3.0770054,-0.38947892,-2.0281286,-0.9656614,-1.9502312
1715849114.869667,-2.900702,-3.0770054,-0.38947892,-2.0281286,-0.9656614,-1.9502312
1715849114.870833,-2.9715164,-3.2714396,-0.2083529,-2.2305286,-0.6556697,-0.7709845
1715849114.872016,-2.9715164,-3.2714396,-0.2083529,-2.2305286,-0.6556697,-0.7709845
1715849114.873243,-2.9715164,-3.2714396,-0.2083529,-2.2305286,-0.6556697,-0.7709845
1715849114.874467,-2.9715164,-3.2714396,-0.2083529,-2.2305286,-0.6556697,-0.7709845
1715849114.875672,-2.9715164,-3.2714396,-0.2083529,-2.2305286,-0.6556697,-0.7709845
1715849114.87697,-2.745521,-3.2699747,-0.022343148,-2.4489076,0.35100433,0.6447508
1715849114.878151,-2.745521,-3.2699747,-0.022343148,-2.4489076,0.35100433,0.6447508
1715849114.879336,-2.745521,-3.2699747,-0.022343148,-2.4489076,0.35100433,0.6447508
1715849114.880515,-2.745521,-3.2699747,-0.022343148,-2.4489076,0.35100433,0.6447508
1715849114.881706,-2.745521,-3.2699747,-0.022343148,-2.4489076,0.35100433,0.6447508
1715849114.882871,-2.745521,-3.2699747,-0.022343148,-2.4489076,0.35100433,0.6447508
1715849114.884072,-2.745521,-3.2699747,-0.022343148,-2.4489076,0.35100433,0.6447508
1715849114.885309,-2.745521,-3.2699747,-0.022343148,-2.4489076,0.35100433,0.6447508
1715849114.886483,-2.745521,-3.2699747,-0.022343148,-2.4489076,0.35100433,0.6447508
1715849114.887683,-2.4472463,-3.734541,0.4620026,-1.9535601,1.3161331,2.0306585
1715849114.888872,-2.4472463,-3.734541,0.4620026,-1.9535601,1.3161331,2.0306585
1715849114.890004,-2.4472463,-3.734541,0.4620026,-1.9535601,1.3161331,2.0306585
1715849114.891173,-2.4472463,-3.734541,0.4620026,-1.9535601,1.3161331,2.0306585
1715849114.892346,-2.4472463,-3.734541,0.4620026,-1.9535601,1.3161331,2.0306585
1715849114.893517,-2.4472463,-3.734541,0.4620026,-1.9535601,1.3161331,2.0306585
1715849114.894688,-2.4472463,-3.734541,0.4620026,-1.9535601,1.3161331,2.0306585
1715849114.895844,-2.4472463,-3.734541,0.4620026,-1.9535601,1.3161331,2.0306585
1715849114.897005,-2.4472463,-3.734541,0.4620026,-0.86912185,2.2599566,3.1406631
1715849114.898158,-1.5060868,-3.6457791,0.088578984,-0.86912185,2.2599566,3.1406631
1715849114.899272,-1.5060868,-3.6457791,0.088578984,-0.86912185,2.2599566,3.1406631
1715849114.900405,-1.5060868,-3.6457791,0.088578984,-0.86912185,2.2599566,3.1406631
1715849114.901541,-1.5060868,-3.6457791,0.088578984,-0.86912185,2.2599566,3.1406631
1715849114.90267,-1.5060868,-3.6457791,0.088578984,-0.86912185,2.2599566,3.1406631
1715849114.903771,-1.5060868,-3.6457791,0.088578984,-0.86912185,2.2599566,3.1406631
1715849114.904932,-1.5060868,-3.6457791,0.088578984,-0.86912185,2.2599566,3.1406631
1715849114.90605,-1.5060868,-3.6457791,0.088578984,-0.86912185,2.2599566,3.1406631
1715849114.907157,-1.5060868,-3.6457791,0.088578984,-0.4334291,2.4815314,3.2439938
1715849114.908252,-1.1014073,-3.469781,-0.17007653,-0.4334291,2.4815314,3.2439938
1715849114.909347,-1.1014073,-3.469781,-0.17007653,-0.4334291,2.4815314,3.2439938
1715849114.910436,-1.1014073,-3.469781,-0.17007653,-0.4334291,2.4815314,3.2439938
1715849114.911554,-1.1014073,-3.469781,-0.17007653,-0.4334291,2.4815314,3.2439938
1715849114.912745,-1.1014073,-3.469781,-0.17007653,-0.4334291,2.4815314,3.2439938
1715849114.91399,-1.1014073,-3.469781,-0.17007653,-0.4334291,2.4815314,3.2439938
1715849114.915158,-1.1014073,-3.469781,-0.17007653,-0.4334291,2.4815314,3.2439938
1715849114.916368,-1.1014073,-3.469781,-0.17007653,-0.4334291,2.4815314,3.2439938
1715849114.917596,-1.1014073,-3.469781,-0.17007653,-0.4334291,2.4815314,3.2439938
1715849114.918818,-1.1014073,-3.469781,-0.17007653,-0.4334291,2.4815314,3.2439938
1715849114.920002,-1.1014073,-3.469781,-0.17007653,-0.4334291,2.4815314,3.2439938
1715849114.921153,-1.1014073,-3.469781,-0.17007653,-0.4334291,2.4815314,3.2439938
1715849114.922345,-1.1014073,-3.469781,-0.17007653,-0.4334291,2.4815314,3.2439938
1715849114.92348,-1.1014073,-3.469781,-0.17007653,-0.4334291,2.4815314,3.2439938
1715849114.924647,-1.1014073,-3.469781,-0.17007653,-0.4334291,2.4815314,3.2439938
1715849114.925757,-1.1014073,-3.469781,-0.17007653,-0.4334291,2.4815314,3.2439938
1715849114.926921,-1.1014073,-3.469781,-0.17007653,-0.4334291,2.4815314,3.2439938
1715849114.928031,-1.1014073,-3.469781,-0.17007653,-0.4334291,2.4815314,3.2439938
1715849114.929243,-1.1014073,-3.469781,-0.17007653,-0.4334291,2.4815314,3.2439938
1715849114.930403,-1.1014073,-3.469781,-0.17007653,-0.4334291,2.4815314,3.2439938
1715849114.931519,-1.1014073,-3.469781,-0.17007653,-0.4334291,2.4815314,3.2439938
1715849114.932641,-1.1014073,-3.469781,-0.17007653,-0.4334291,2.4815314,3.2439938
1715849114.933757,-1.1014073,-3.469781,-0.17007653,-0.4334291,2.4815314,3.2439938
1715849114.934867,-1.1014073,-3.469781,-0.17007653,-0.4334291,2.4815314,3.2439938
1715849114.935978,-1.1014073,-3.469781,-0.17007653,-0.4334291,2.4815314,3.2439938
1715849114.93709,-1.1014073,-3.469781,-0.17007653,-0.4334291,2.4815314,3.2439938
1715849114.938204,-1.1014073,-3.469781,-0.17007653,-0.4334291,2.4815314,3.2439938
1715849114.939277,-1.1014073,-3.469781,-0.17007653,-0.4334291,2.4815314,3.2439938
1715849114.940409,-1.1014073,-3.469781,-0.17007653,-0.4334291,2.4815314,3.2439938
1715849114.941549,-1.1014073,-3.469781,-0.17007653,-0.4334291,2.4815314,3.2439938
1715849114.942668,-1.1014073,-3.469781,-0.17007653,-0.4334291,2.4815314,3.2439938
1715849114.943836,-1.1014073,-3.469781,-0.17007653,-0.4334291,2.4815314,3.2439938
1715849114.944944,-1.1014073,-3.469781,-0.17007653,-0.4334291,2.4815314,3.2439938
1715849114.946095,-1.1014073,-3.469781,-0.17007653,-0.4334291,2.4815314,3.2439938
1715849114.947256,-1.1014073,-3.469781,-0.17007653,-0.4334291,2.4815314,3.2439938
1715849114.948408,-1.1014073,-3.469781,-0.17007653,-0.4334291,2.4815314,3.2439938
1715849114.94956,-1.1014073,-3.469781,-0.17007653,-0.4334291,2.4815314,3.2439938
1715849114.95071,-1.1014073,-3.469781,-0.17007653,-0.4334291,2.4815314,3.2439938
1715849114.951821,-1.1014073,-3.469781,-0.17007653,-0.4334291,2.4815314,3.2439938
1715849114.952988,-1.7340358,-2.849606,-1.2278963,-1.4869747,2.6519735,2.8743472
1715849114.954112,-1.7340358,-2.849606,-1.2278963,-1.4869747,2.6519735,2.8743472
1715849114.955273,-1.7340358,-2.849606,-1.2278963,-1.4869747,2.6519735,2.8743472
1715849114.956429,-1.7340358,-2.849606,-1.2278963,-1.4869747,2.6519735,2.8743472
1715849114.95754,-2.0449476,-2.7191489,-1.0152701,-1.7500948,2.5869925,3.3590422
1715849114.958663,-2.0449476,-2.7191489,-1.0152701,-1.7500948,2.5869925,3.3590422
1715849114.959832,-2.0449476,-2.7191489,-1.0152701,-1.7500948,2.5869925,3.3590422
1715849114.960995,-2.0449476,-2.7191489,-1.0152701,-1.7500948,2.5869925,3.3590422
1715849114.962153,-2.0449476,-2.7191489,-1.0152701,-1.7500948,2.5869925,3.3590422
1715849114.963334,-2.0449476,-2.7191489,-1.0152701,-1.7500948,2.5869925,3.3590422
1715849114.964499,-2.0449476,-2.7191489,-1.0152701,-1.7500948,2.5869925,3.3590422
1715849114.965656,-2.0449476,-2.7191489,-1.0152701,-1.7500948,2.5869925,3.3590422
1715849114.966766,-2.0449476,-2.7191489,-1.0152701,-1.7500948,2.5869925,3.3590422
1715849114.9679,-2.0449476,-2.7191489,-1.0152701,-1.7500948,2.5869925,3.3590422
1715849114.969061,-2.0449476,-2.7191489,-1.0152701,-1.7500948,2.5869925,3.3590422
1715849114.970165,-2.0449476,-2.7191489,-1.0152701,-1.7500948,2.5869925,3.3590422
1715849114.971317,-2.1289477,-2.5373514,-0.7629025,-1.7500948,2.5869925,3.3590422
1715849114.972475,-2.1289477,-2.5373514,-0.7629025,-1.9077538,2.5294683,4.2133837
1715849114.973632,-2.1289477,-2.5373514,-0.7629025,-1.9077538,2.5294683,4.2133837
1715849114.97479,-2.1289477,-2.5373514,-0.7629025,-1.9077538,2.5294683,4.2133837
1715849114.975915,-2.1289477,-2.5373514,-0.7629025,-1.9077538,2.5294683,4.2133837
1715849114.977077,-1.8155334,-2.3734405,-0.6021051,-1.8385117,2.4058976,5.3031483
1715849114.978239,-1.8155334,-2.3734405,-0.6021051,-1.8385117,2.4058976,5.3031483
1715849114.979333,-1.8155334,-2.3734405,-0.6021051,-1.8385117,2.4058976,5.3031483
1715849114.980492,-1.8155334,-2.3734405,-0.6021051,-1.8385117,2.4058976,5.3031483
1715849114.981648,-1.8155334,-2.3734405,-0.6021051,-1.8385117,2.4058976,5.3031483
1715849114.982806,-1.8155334,-2.3734405,-0.6021051,-1.8385117,2.4058976,5.3031483
1715849114.98398,-1.8155334,-2.3734405,-0.6021051,-1.8385117,2.4058976,5.3031483
1715849114.985102,-1.8155334,-2.3734405,-0.6021051,-1.8385117,2.4058976,5.3031483
1715849114.986274,-1.8155334,-2.3734405,-0.6021051,-1.8385117,2.4058976,5.3031483
1715849114.9874,-1.8155334,-2.3734405,-0.6021051,-1.8385117,2.4058976,5.3031483
1715849114.988529,-1.5240958,-2.2808325,-0.60698885,-1.8172064,2.3494387,5.8624115
1715849114.989732,-1.5240958,-2.2808325,-0.60698885,-1.8172064,2.3494387,5.8624115
1715849114.99092,-1.5240958,-2.2808325,-0.60698885,-1.8172064,2.3494387,5.8624115
1715849114.992112,-1.5240958,-2.2808325,-0.60698885,-1.8172064,2.3494387,5.8624115
1715849114.993273,-1.5240958,-2.2808325,-0.60698885,-1.8172064,2.3494387,5.8624115
1715849114.994512,-1.5240958,-2.2808325,-0.60698885,-1.8172064,2.3494387,5.8624115
1715849114.995831,-1.5240958,-2.2808325,-0.60698885,-1.8172064,2.3494387,5.8624115
1715849114.997005,-0.28661495,-2.0713196,-0.6776811,-2.1165454,2.2599566,7.1599026
1715849114.998172,-0.28661495,-2.0713196,-0.6776811,-2.1165454,2.2599566,7.1599026
1715849114.999382,-0.28661495,-2.0713196,-0.6776811,-2.1165454,2.2599566,7.1599026
1715849115.000581,-0.28661495,-2.0713196,-0.6776811,-2.1165454,2.2599566,7.1599026
1715849115.001785,-0.28661495,-2.0713196,-0.6776811,-2.1165454,2.2599566,7.1599026
1715849115.002981,-0.28661495,-2.0713196,-0.6776811,-2.1165454,2.2599566,7.1599026
1715849115.004132,-0.28661495,-2.0713196,-0.6776811,-2.1165454,2.2599566,7.1599026
1715849115.005264,-0.28661495,-2.0713196,-0.6776811,-2.1165454,2.2599566,7.1599026
1715849115.006411,-0.28661495,-2.0713196,-0.6776811,-2.1165454,2.2599566,7.1599026
1715849115.00766,-0.28661495,-2.0713196,-0.6776811,-2.1165454,2.2599566,7.1599026
1715849115.008886,0.6472187,-1.9268829,-0.71058536,-2.773813,2.4080281,7.528484
1715849115.01003,0.6472187,-1.9268829,-0.71058536,-2.773813,2.4080281,7.528484
1715849115.011153,0.6472187,-1.9268829,-0.71058536,-2.773813,2.4080281,7.528484
1715849115.01237,0.6472187,-1.9268829,-0.71058536,-2.773813,2.4080281,7.528484
1715849115.013601,0.6472187,-1.9268829,-0.71058536,-2.773813,2.4080281,7.528484
1715849115.014805,0.6472187,-1.9268829,-0.71058536,-2.773813,2.4080281,7.528484
1715849115.015973,0.6472187,-1.9268829,-0.71058536,-2.773813,2.4080281,7.528484
1715849115.017141,0.6472187,-1.9268829,-0.71058536,-2.773813,2.4080281,7.528484
1715849115.01834,0.6472187,-1.9268829,-0.71058536,-2.773813,2.4080281,7.528484
1715849115.019563,0.6472187,-1.9268829,-0.71058536,-2.773813,2.4080281,7.528484
1715849115.020706,0.6472187,-1.9268829,-0.71058536,-2.773813,2.4080281,7.528484
1715849115.021929,0.6472187,-1.9268829,-0.71058536,-2.773813,2.4080281,7.528484
1715849115.023158,0.6472187,-1.9268829,-0.71058536,-2.773813,2.4080281,7.528484
1715849115.024386,0.6472187,-1.9268829,-0.71058536,-2.773813,2.4080281,7.528484
1715849115.025566,0.6472187,-1.9268829,-0.71058536,-2.773813,2.4080281,7.528484
1715849115.026802,0.6472187,-1.9268829,-0.71058536,-2.773813,2.4080281,7.528484
1715849115.028029,0.6472187,-1.9268829,-0.71058536,-2.773813,2.4080281,7.528484
1715849115.029212,0.6472187,-1.9268829,-0.71058536,-2.773813,2.4080281,7.528484
1715849115.030431,0.6472187,-1.9268829,-0.71058536,-2.773813,2.4080281,7.528484
1715849115.031631,0.6472187,-1.9268829,-0.71058536,-2.773813,2.4080281,7.528484
1715849115.032887,0.6472187,-1.9268829,-0.71058536,-2.773813,2.4080281,7.528484
1715849115.034121,0.6472187,-1.9268829,-0.71058536,-2.773813,2.4080281,7.528484
1715849115.035367,0.6472187,-1.9268829,-0.71058536,-2.773813,2.4080281,7.528484
1715849115.036547,0.6472187,-1.9268829,-0.71058536,-2.773813,2.4080281,7.528484
1715849115.037767,0.6472187,-1.9268829,-0.71058536,-2.773813,2.4080281,7.528484
1715849115.038997,0.6472187,-1.9268829,-0.71058536,-2.773813,2.4080281,7.528484
1715849115.040228,0.6472187,-1.9268829,-0.71058536,-2.773813,2.4080281,7.528484
1715849115.041417,0.6472187,-1.9268829,-0.71058536,-2.773813,2.4080281,7.528484
1715849115.042839,1.4140892,-1.7619952,-0.5735352,-3.7304196,2.6892579,7.500787
